file,category,distance,block,trial,response,confidence,responseTime,reactionTime,correct
C:\psychtool\AnimalDB\AnimalDB\Animall\Head\H_N815032.jpg,Animall,Head,1,1,Animall,5,3.62623950000852,3.7444092000369,1
C:\psychtool\AnimalDB\AnimalDB\Animall\MediumBody\M_N485043.jpg,Animall,MediumBody,1,2,Animall,5,0.55567799997516,0.674147200013977,1
C:\psychtool\AnimalDB\AnimalDB\NonAnimall\FarBody\Fdn_open13.jpg,NonAnimall,FarBody,1,3,NonAnimall,5,1.12254010001197,1.23823509999784,1
C:\psychtool\AnimalDB\AnimalDB\Animall\Head\H_N815083.jpg,Animall,Head,1,4,Animall,5,0.988519000005908,1.10303270001896,1
C:\psychtool\AnimalDB\AnimalDB\NonAnimall\Head\Hdn_for104.jpg,NonAnimall,Head,1,5,Animall,4,1.50458070001332,1.61602439999115,0
C:\psychtool\AnimalDB\AnimalDB\Animall\MediumBody\M_N110047.jpg,Animall,MediumBody,1,6,Animall,5,0.881181099975947,0.989984199986793,1
C:\psychtool\AnimalDB\AnimalDB\NonAnimall\FarBody\Fdn_for7.jpg,NonAnimall,FarBody,1,7,NonAnimall,5,1.43850590003422,1.55084580002585,1
C:\psychtool\AnimalDB\AnimalDB\Animall\Head\H_N134031.jpg,Animall,Head,1,8,Animall,5,2.10127339995233,2.21758169995155,1
C:\psychtool\AnimalDB\AnimalDB\NonAnimall\Head\Hdn_objn25.jpg,NonAnimall,Head,1,9,Animall,5,0.63147319998825,0.74622679996537,0
C:\psychtool\AnimalDB\AnimalDB\NonAnimall\FarBody\Fdn_open19.jpg,NonAnimall,FarBody,1,10,Animall,5,0.961275800014846,1.07610040000873,0
C:\psychtool\AnimalDB\AnimalDB\NonAnimall\FarBody\Fdn_open16.jpg,NonAnimall,FarBody,1,11,NonAnimall,5,0.997269599989522,1.11177730001509,1
C:\psychtool\AnimalDB\AnimalDB\Animall\CloseBody\B_N828067.jpg,Animall,CloseBody,1,12,Animall,5,1.16797389998101,1.28274850000162,1
C:\psychtool\AnimalDB\AnimalDB\Animall\CloseBody\B_N815010.jpg,Animall,CloseBody,1,13,Animall,5,0.90169580001384,1.01703069999348,1
C:\psychtool\AnimalDB\AnimalDB\NonAnimall\CloseBody\Bdn_text29.jpg,NonAnimall,CloseBody,1,14,NonAnimall,5,1.32703009998659,1.44131490000291,1
C:\psychtool\AnimalDB\AnimalDB\Animall\MediumBody\M_N268024.jpg,Animall,MediumBody,1,15,Animall,5,0.734285100013949,0.848978699999861,1
C:\psychtool\AnimalDB\AnimalDB\NonAnimall\FarBody\Fdn_land135.jpg,NonAnimall,FarBody,1,16,Animall,5,1.81785749999108,1.93315370002529,0
C:\psychtool\AnimalDB\AnimalDB\NonAnimall\MediumBody\Mdn_nat389.jpg,NonAnimall,MediumBody,1,17,NonAnimall,5,1.42270569998072,1.53253580001183,1
C:\psychtool\AnimalDB\AnimalDB\Animall\MediumBody\M_N253095.jpg,Animall,MediumBody,1,18,Animall,5,0.859640899987426,0.97432670003036,1
C:\psychtool\AnimalDB\AnimalDB\Animall\FarBody\F_N828049.jpg,Animall,FarBody,1,19,NonAnimall,5,1.18992380000418,1.304918800015,0
C:\psychtool\AnimalDB\AnimalDB\NonAnimall\CloseBody\Bdn_land377.jpg,NonAnimall,CloseBody,1,20,Animall,5,1.01868929999182,1.133903799986,0
C:\psychtool\AnimalDB\AnimalDB\NonAnimall\Head\Hdn_objn37.jpg,NonAnimall,Head,1,21,Animall,5,0.908868800033815,1.0237899000058,0
C:\psychtool\AnimalDB\AnimalDB\Animall\FarBody\F_N408004.jpg,Animall,FarBody,1,22,Animall,5,1.07775329996366,1.19289750000462,1
C:\psychtool\AnimalDB\AnimalDB\Animall\FarBody\F_N816036.jpg,Animall,FarBody,1,23,NonAnimall,5,1.18104330002097,1.29581130004954,0
C:\psychtool\AnimalDB\AnimalDB\NonAnimall\FarBody\Fdn_open7.jpg,NonAnimall,FarBody,1,24,NonAnimall,5,1.02349819999654,1.13909070001682,1
C:\psychtool\AnimalDB\AnimalDB\NonAnimall\Head\Hdn_objn47.jpg,NonAnimall,Head,1,25,Animall,4,1.09308199997758,1.20786950003821,0
C:\psychtool\AnimalDB\AnimalDB\Animall\MediumBody\M_N168046.jpg,Animall,MediumBody,1,26,Animall,4,0.95144590002019,1.06639579997864,1
C:\psychtool\AnimalDB\AnimalDB\NonAnimall\MediumBody\Mda_urb951.jpg,NonAnimall,MediumBody,1,27,Animall,3,1.62958389997948,1.7446128000156,0
C:\psychtool\AnimalDB\AnimalDB\Animall\MediumBody\M_N408059.jpg,Animall,MediumBody,1,28,Animall,5,0.916837700002361,1.03156490001129,1
C:\psychtool\AnimalDB\AnimalDB\Animall\Head\H_N247010.jpg,Animall,Head,1,29,Animall,5,0.884069999970961,0.998846500006039,1
C:\psychtool\AnimalDB\AnimalDB\NonAnimall\CloseBody\Bdn_text21.jpg,NonAnimall,CloseBody,1,30,Animall,2,1.62723009998444,1.74207020003814,0
C:\psychtool\AnimalDB\AnimalDB\NonAnimall\FarBody\Fdn_nat170.jpg,NonAnimall,FarBody,1,31,NonAnimall,4,1.14577500004089,1.26048399996944,1
C:\psychtool\AnimalDB\AnimalDB\NonAnimall\Head\Hdn_objn98.jpg,NonAnimall,Head,1,32,NonAnimall,5,1.04029839998111,1.15498759999173,1
C:\psychtool\AnimalDB\AnimalDB\NonAnimall\Head\Hdn_objn113.jpg,NonAnimall,Head,1,33,Animall,4,1.08947429998079,1.20427840005141,0
C:\psychtool\AnimalDB\AnimalDB\Animall\MediumBody\M_N825071.jpg,Animall,MediumBody,1,34,Animall,5,0.851661599997897,0.966373500006739,1
C:\psychtool\AnimalDB\AnimalDB\NonAnimall\CloseBody\Bdn_natu160.jpg,NonAnimall,CloseBody,1,35,Animall,3,1.24408530001529,1.35867550002877,0
C:\psychtool\AnimalDB\AnimalDB\Animall\FarBody\F_N408076.jpg,Animall,FarBody,1,36,Animall,5,0.905383199977223,1.02022060001036,1
C:\psychtool\AnimalDB\AnimalDB\Animall\FarBody\F_N408045.jpg,Animall,FarBody,1,37,Animall,5,1.43036779999966,1.54522729996825,1
C:\psychtool\AnimalDB\AnimalDB\Animall\Head\H_N209039.jpg,Animall,Head,1,38,Animall,5,1.0337744000135,1.14856020000298,1
C:\psychtool\AnimalDB\AnimalDB\NonAnimall\CloseBody\Bda_urb596.jpg,NonAnimall,CloseBody,1,39,NonAnimall,5,1.0670972999651,1.18190620001405,1
C:\psychtool\AnimalDB\AnimalDB\NonAnimall\Head\Hdn_objn65.jpg,NonAnimall,Head,1,40,NonAnimall,3,1.34196160000283,1.45674829999916,1
C:\psychtool\AnimalDB\AnimalDB\NonAnimall\FarBody\Fdn_nat895.jpg,NonAnimall,FarBody,1,41,NonAnimall,5,1.72603539994452,1.84055299998727,1
C:\psychtool\AnimalDB\AnimalDB\NonAnimall\CloseBody\Bdn_N44094.jpg,NonAnimall,CloseBody,1,42,Animall,5,0.970570100005716,1.08706710004481,0
C:\psychtool\AnimalDB\AnimalDB\Animall\CloseBody\B_N771070.jpg,Animall,CloseBody,1,43,Animall,5,0.995219199976418,1.10982949996833,1
C:\psychtool\AnimalDB\AnimalDB\Animall\MediumBody\M_N136056.jpg,Animall,MediumBody,1,44,Animall,4,1.09261799999513,1.20736559998477,1
C:\psychtool\AnimalDB\AnimalDB\Animall\CloseBody\B_N825052.jpg,Animall,CloseBody,1,45,Animall,5,0.843741599994246,0.958480200031772,1
C:\psychtool\AnimalDB\AnimalDB\NonAnimall\MediumBody\Mdn_N291096.jpg,NonAnimall,MediumBody,1,46,NonAnimall,5,1.14402950002113,1.25876639998751,1
C:\psychtool\AnimalDB\AnimalDB\Animall\CloseBody\B_N541022.jpg,Animall,CloseBody,1,47,Animall,5,0.82567360001849,0.940405799949076,1
C:\psychtool\AnimalDB\AnimalDB\Animall\CloseBody\B_N173071.jpg,Animall,CloseBody,1,48,Animall,5,1.02589059999445,1.14070590003394,1
C:\psychtool\AnimalDB\AnimalDB\NonAnimall\CloseBody\Bdn_nat915.jpg,NonAnimall,CloseBody,1,49,Animall,4,1.35745999997016,1.47209530003602,0
C:\psychtool\AnimalDB\AnimalDB\Animall\CloseBody\B_N802036.jpg,Animall,CloseBody,1,50,Animall,5,0.826582000008784,0.941239300009329,1
C:\psychtool\AnimalDB\AnimalDB\NonAnimall\MediumBody\Mdn_natu42.jpg,NonAnimall,MediumBody,1,51,NonAnimall,5,1.16054579999764,1.27526590001071,1
C:\psychtool\AnimalDB\AnimalDB\NonAnimall\Head\Hdn_objn18.jpg,NonAnimall,Head,1,52,Animall,5,0.806928500009235,0.921691499999724,0
C:\psychtool\AnimalDB\AnimalDB\NonAnimall\MediumBody\Mdn_for135.jpg,NonAnimall,MediumBody,1,53,Animall,5,1.07525390002411,1.19009370001731,0
C:\psychtool\AnimalDB\AnimalDB\Animall\FarBody\F_N408055.jpg,Animall,FarBody,1,54,Animall,5,1.02557260001777,1.14046910003526,1
C:\psychtool\AnimalDB\AnimalDB\NonAnimall\Head\Hdn_objn19.jpg,NonAnimall,Head,1,55,NonAnimall,4,2.10627099999692,2.22110900003463,1
C:\psychtool\AnimalDB\AnimalDB\Animall\FarBody\F_N209015.jpg,Animall,FarBody,1,56,Animall,5,0.95722439995734,1.07198649999918,1
C:\psychtool\AnimalDB\AnimalDB\Animall\CloseBody\B_N209079.jpg,Animall,CloseBody,1,57,Animall,5,0.810162900015712,0.925015199987683,1
C:\psychtool\AnimalDB\AnimalDB\Animall\FarBody\F_N314064.jpg,Animall,FarBody,1,58,NonAnimall,4,1.37824429996544,1.49309160001576,0
C:\psychtool\AnimalDB\AnimalDB\Animall\CloseBody\B_N825028.jpg,Animall,CloseBody,1,59,Animall,5,0.74754909996409,0.862238399975467,1
C:\psychtool\AnimalDB\AnimalDB\Animall\CloseBody\B_N268067.jpg,Animall,CloseBody,1,60,Animall,5,0.97714219999034,1.09199259994784,1
C:\psychtool\AnimalDB\AnimalDB\Animall\Head\H_N471006.jpg,Animall,Head,1,61,Animall,5,1.00579729996389,1.12067580001894,1
C:\psychtool\AnimalDB\AnimalDB\NonAnimall\MediumBody\Mdn_N228004.jpg,NonAnimall,MediumBody,1,62,NonAnimall,4,1.37496040004771,1.48985579999862,1
C:\psychtool\AnimalDB\AnimalDB\Animall\CloseBody\B_N815034.jpg,Animall,CloseBody,1,63,Animall,5,0.783081200032029,0.897861099976581,1
C:\psychtool\AnimalDB\AnimalDB\NonAnimall\Head\Hdn_objn40.jpg,NonAnimall,Head,1,64,NonAnimall,4,1.13117160002002,1.24603820004268,1
C:\psychtool\AnimalDB\AnimalDB\NonAnimall\MediumBody\Mdn_N295009.jpg,NonAnimall,MediumBody,1,65,Animall,4,1.11438220000127,1.22916079999413,0
C:\psychtool\AnimalDB\AnimalDB\Animall\Head\H_N802037.jpg,Animall,Head,1,66,Animall,5,0.960745799995493,1.07571190001909,1
C:\psychtool\AnimalDB\AnimalDB\NonAnimall\CloseBody\Bdn_text23.jpg,NonAnimall,CloseBody,1,67,Animall,3,1.31484750000527,1.42954100004863,0
C:\psychtool\AnimalDB\AnimalDB\NonAnimall\MediumBody\Mdn_land159.jpg,NonAnimall,MediumBody,1,68,NonAnimall,5,1.26196660002461,1.37700460001361,1
C:\psychtool\AnimalDB\AnimalDB\NonAnimall\FarBody\Fdn_bea5.jpg,NonAnimall,FarBody,1,69,NonAnimall,5,1.09214649995556,1.20721740002045,1
C:\psychtool\AnimalDB\AnimalDB\NonAnimall\CloseBody\Bdn_text19.jpg,NonAnimall,CloseBody,1,70,Animall,4,1.08423700003186,1.1989475999726,0
C:\psychtool\AnimalDB\AnimalDB\NonAnimall\CloseBody\Bdn_N83045.jpg,NonAnimall,CloseBody,1,71,NonAnimall,4,1.49727580003673,1.61200409999583,1
C:\psychtool\AnimalDB\AnimalDB\NonAnimall\MediumBody\Mdn_sharp49.jpg,NonAnimall,MediumBody,1,72,NonAnimall,5,1.57508749997942,1.68992289999733,1
C:\psychtool\AnimalDB\AnimalDB\Animall\CloseBody\B_N707011.jpg,Animall,CloseBody,1,73,Animall,5,0.829146900039632,0.944016000023112,1
C:\psychtool\AnimalDB\AnimalDB\Animall\MediumBody\M_N130081.jpg,Animall,MediumBody,1,74,Animall,5,0.970784499950241,1.08649900002638,1
C:\psychtool\AnimalDB\AnimalDB\NonAnimall\FarBody\Fdn_land353.jpg,NonAnimall,FarBody,1,75,NonAnimall,5,0.970265699957963,1.08675049996236,1
C:\psychtool\AnimalDB\AnimalDB\NonAnimall\MediumBody\Mdn_land243.jpg,NonAnimall,MediumBody,1,76,NonAnimall,4,1.53725920000579,1.65207349997945,1
C:\psychtool\AnimalDB\AnimalDB\NonAnimall\MediumBody\Mdn_N344035.jpg,NonAnimall,MediumBody,1,77,NonAnimall,5,0.876231600006577,0.990990199963562,1
C:\psychtool\AnimalDB\AnimalDB\NonAnimall\FarBody\Fda_urb752.jpg,NonAnimall,FarBody,1,78,NonAnimall,5,1.0846779999556,1.19970379996812,1
C:\psychtool\AnimalDB\AnimalDB\Animall\Head\H_N825080.jpg,Animall,Head,1,79,Animall,5,1.12701530003687,1.24201599997468,1
C:\psychtool\AnimalDB\AnimalDB\NonAnimall\MediumBody\Mdn_natu169.jpg,NonAnimall,MediumBody,1,80,NonAnimall,5,1.05806999997003,1.17306499998085,1
C:\psychtool\AnimalDB\AnimalDB\Animall\FarBody\F_N408025.jpg,Animall,FarBody,1,81,Animall,5,0.963000599993393,1.07794809999177,1
C:\psychtool\AnimalDB\AnimalDB\Animall\FarBody\F_N827027.jpg,Animall,FarBody,1,82,Animall,5,0.832403899985366,0.947111499961466,1
C:\psychtool\AnimalDB\AnimalDB\Animall\Head\H_N160053.jpg,Animall,Head,1,83,Animall,5,0.931953899969812,1.0466185999685,1
C:\psychtool\AnimalDB\AnimalDB\Animall\CloseBody\B_N815074.jpg,Animall,CloseBody,1,84,Animall,5,0.751231200003531,0.86784840002656,1
C:\psychtool\AnimalDB\AnimalDB\NonAnimall\FarBody\Fdn_natu815.jpg,NonAnimall,FarBody,1,85,Animall,4,1.70783849997679,1.82261299999664,0
C:\psychtool\AnimalDB\AnimalDB\Animall\CloseBody\B_N326017.jpg,Animall,CloseBody,1,86,Animall,5,0.749871400010306,0.864585399976932,1
C:\psychtool\AnimalDB\AnimalDB\Animall\MediumBody\M_N268028.jpg,Animall,MediumBody,1,87,Animall,5,0.880588500003796,0.995456599979661,1
C:\psychtool\AnimalDB\AnimalDB\NonAnimall\Head\Hdn_objn39.jpg,NonAnimall,Head,1,88,Animall,4,1.09847430000082,1.21316939999815,0
C:\psychtool\AnimalDB\AnimalDB\NonAnimall\Head\Hdn_objn30.jpg,NonAnimall,Head,1,89,NonAnimall,5,1.07468970003538,1.18958369997563,1
C:\psychtool\AnimalDB\AnimalDB\NonAnimall\CloseBody\Bdn_objn94.jpg,NonAnimall,CloseBody,1,90,NonAnimall,4,1.05844750005053,1.17321460001403,1
C:\psychtool\AnimalDB\AnimalDB\NonAnimall\MediumBody\Mdn_for22.jpg,NonAnimall,MediumBody,1,91,NonAnimall,3,1.17585850000614,1.29079649999039,1
C:\psychtool\AnimalDB\AnimalDB\NonAnimall\MediumBody\Mdn_N295007.jpg,NonAnimall,MediumBody,1,92,NonAnimall,5,1.01045990001876,1.12509039998986,1
C:\psychtool\AnimalDB\AnimalDB\Animall\MediumBody\M_N123078.jpg,Animall,MediumBody,1,93,Animall,5,0.687296399963088,0.80415720003657,1
C:\psychtool\AnimalDB\AnimalDB\NonAnimall\Head\Hdn_natu805.jpg,NonAnimall,Head,1,94,NonAnimall,5,1.1411501999828,1.25591599999461,1
C:\psychtool\AnimalDB\AnimalDB\Animall\FarBody\F_N408054.jpg,Animall,FarBody,1,95,NonAnimall,4,1.18933089997154,1.30401110003004,0
C:\psychtool\AnimalDB\AnimalDB\NonAnimall\CloseBody\Bdn_natu419.jpg,NonAnimall,CloseBody,1,96,Animall,5,0.890650099958293,1.00532719999319,0
C:\psychtool\AnimalDB\AnimalDB\Animall\FarBody\F_N168041.jpg,Animall,FarBody,1,97,NonAnimall,3,1.52489870000863,1.6397800000268,0
C:\psychtool\AnimalDB\AnimalDB\Animall\Head\H_N247096.jpg,Animall,Head,1,98,Animall,5,1.17313640000066,1.28793069999665,1
C:\psychtool\AnimalDB\AnimalDB\NonAnimall\MediumBody\Mdn_N291070.jpg,NonAnimall,MediumBody,1,99,NonAnimall,5,0.993917099956889,1.10872680001194,1
C:\psychtool\AnimalDB\AnimalDB\NonAnimall\FarBody\Fdn_open17.jpg,NonAnimall,FarBody,1,100,Animall,3,1.34737249999307,1.46236040000804,0
C:\psychtool\AnimalDB\AnimalDB\NonAnimall\MediumBody\Mdn_text119.jpg,NonAnimall,MediumBody,1,101,NonAnimall,5,1.52588450000621,1.6405761000351,1
C:\psychtool\AnimalDB\AnimalDB\Animall\CloseBody\B_N771064.jpg,Animall,CloseBody,1,102,Animall,5,0.777940500003751,0.892616700031795,1
C:\psychtool\AnimalDB\AnimalDB\Animall\MediumBody\M_N289015.jpg,Animall,MediumBody,1,103,Animall,5,0.884496199956629,0.999436799960677,1
C:\psychtool\AnimalDB\AnimalDB\NonAnimall\MediumBody\Mdn_nat256.jpg,NonAnimall,MediumBody,1,104,Animall,5,0.697520799993072,0.812410600017756,0
C:\psychtool\AnimalDB\AnimalDB\Animall\FarBody\F_N289082.jpg,Animall,FarBody,1,105,Animall,5,0.773002100002486,0.887816099973861,1
C:\psychtool\AnimalDB\AnimalDB\Animall\MediumBody\M_N816048.jpg,Animall,MediumBody,1,106,Animall,5,0.810420099995099,0.925307099998463,1
C:\psychtool\AnimalDB\AnimalDB\Animall\Head\H_N134015.jpg,Animall,Head,1,107,Animall,5,0.867401899944525,0.982107399962842,1
C:\psychtool\AnimalDB\AnimalDB\Animall\MediumBody\M_N123057.jpg,Animall,MediumBody,1,108,Animall,5,0.739825600001495,0.854729300015606,1
C:\psychtool\AnimalDB\AnimalDB\NonAnimall\MediumBody\Mdn_N347004.jpg,NonAnimall,MediumBody,1,109,NonAnimall,5,1.12670929997694,1.24155140004586,1
C:\psychtool\AnimalDB\AnimalDB\Animall\FarBody\F_N314028.jpg,Animall,FarBody,1,110,Animall,5,1.08399750001263,1.19860850000987,1
C:\psychtool\AnimalDB\AnimalDB\NonAnimall\FarBody\Fdn_land241.jpg,NonAnimall,FarBody,1,111,NonAnimall,5,0.918149399978574,1.03468219999922,1
C:\psychtool\AnimalDB\AnimalDB\NonAnimall\MediumBody\Mdn_land53.jpg,NonAnimall,MediumBody,1,112,Animall,5,0.643958100001328,0.758731300011277,0
C:\psychtool\AnimalDB\AnimalDB\Animall\MediumBody\M_N123039.jpg,Animall,MediumBody,1,113,Animall,5,0.720595300022978,0.837292400014121,1
C:\psychtool\AnimalDB\AnimalDB\NonAnimall\CloseBody\Bda_urb286.jpg,NonAnimall,CloseBody,1,114,NonAnimall,5,1.04625110002235,1.16110570001183,1
C:\psychtool\AnimalDB\AnimalDB\NonAnimall\CloseBody\Bdn_nat331.jpg,NonAnimall,CloseBody,1,115,Animall,4,0.953672800038476,1.06902049999917,0
C:\psychtool\AnimalDB\AnimalDB\NonAnimall\FarBody\Fdn_natu799.jpg,NonAnimall,FarBody,1,116,Animall,5,0.864595399994869,0.97969639999792,0
C:\psychtool\AnimalDB\AnimalDB\Animall\CloseBody\B_N253081.jpg,Animall,CloseBody,1,117,Animall,5,0.836752399976831,0.952253600000404,1
C:\psychtool\AnimalDB\AnimalDB\Animall\Head\H_N676023.jpg,Animall,Head,1,118,Animall,5,0.833323400001973,0.948061499977484,1
C:\psychtool\AnimalDB\AnimalDB\NonAnimall\CloseBody\Bdn_objn146.jpg,NonAnimall,CloseBody,1,119,Animall,5,0.83147380000446,0.946408200019505,0
C:\psychtool\AnimalDB\AnimalDB\Animall\MediumBody\M_N109037.jpg,Animall,MediumBody,1,120,Animall,5,0.999021800002083,1.11374010000145,1
C:\psychtool\AnimalDB\AnimalDB\NonAnimall\Head\Hdn_N115084.jpg,NonAnimall,Head,2,1,NonAnimall,4,1.15959130000556,1.27501839998877,1
C:\psychtool\AnimalDB\AnimalDB\Animall\MediumBody\M_N109070.jpg,Animall,MediumBody,2,2,Animall,5,0.759581499965861,0.875051199982408,1
C:\psychtool\AnimalDB\AnimalDB\NonAnimall\FarBody\Fdn_sclos2.jpg,NonAnimall,FarBody,2,3,NonAnimall,4,1.42274830001406,1.53745760000311,1
C:\psychtool\AnimalDB\AnimalDB\Animall\FarBody\F_N168077.jpg,Animall,FarBody,2,4,Animall,5,0.725383499986492,0.840104400005657,1
C:\psychtool\AnimalDB\AnimalDB\Animall\CloseBody\B_N826075.jpg,Animall,CloseBody,2,5,Animall,5,0.924483000009786,1.03929500002414,1
C:\psychtool\AnimalDB\AnimalDB\Animall\MediumBody\M_N326099.jpg,Animall,MediumBody,2,6,Animall,5,0.922503000008874,1.03736130002653,1
C:\psychtool\AnimalDB\AnimalDB\NonAnimall\CloseBody\Bdn_text121.jpg,NonAnimall,CloseBody,2,7,Animall,5,0.751184199994896,0.867958999995608,0
C:\psychtool\AnimalDB\AnimalDB\NonAnimall\MediumBody\Mdn_text90.jpg,NonAnimall,MediumBody,2,8,NonAnimall,5,1.20947249996243,1.32429570000386,1
C:\psychtool\AnimalDB\AnimalDB\Animall\CloseBody\B_N289087.jpg,Animall,CloseBody,2,9,Animall,5,0.835042499995325,0.951434199989308,1
C:\psychtool\AnimalDB\AnimalDB\NonAnimall\MediumBody\Mdn_N344038.jpg,NonAnimall,MediumBody,2,10,Animall,4,0.977544100023806,1.09228019998409,0
C:\psychtool\AnimalDB\AnimalDB\NonAnimall\FarBody\Fdn_nat462.jpg,NonAnimall,FarBody,2,11,NonAnimall,5,0.650467800034676,0.765425899997354,1
C:\psychtool\AnimalDB\AnimalDB\Animall\CloseBody\B_N326076.jpg,Animall,CloseBody,2,12,Animall,5,0.883854800020345,0.998541600012686,1
C:\psychtool\AnimalDB\AnimalDB\NonAnimall\CloseBody\Bdn_for51.jpg,NonAnimall,CloseBody,2,13,NonAnimall,3,1.74117180000758,1.8560469999793,1
C:\psychtool\AnimalDB\AnimalDB\Animall\Head\H_N824044.jpg,Animall,Head,2,14,Animall,5,0.820758200017735,0.935658900009003,1
C:\psychtool\AnimalDB\AnimalDB\Animall\FarBody\F_N408023.jpg,Animall,FarBody,2,15,Animall,3,1.17333640001016,1.28813840000657,1
C:\psychtool\AnimalDB\AnimalDB\NonAnimall\CloseBody\Bda_art142.jpg,NonAnimall,CloseBody,2,16,NonAnimall,5,1.19606450002175,1.31110710004577,1
C:\psychtool\AnimalDB\AnimalDB\NonAnimall\CloseBody\Bdn_for153.jpg,NonAnimall,CloseBody,2,17,Animall,3,1.17385130003095,1.28870400000596,0
C:\psychtool\AnimalDB\AnimalDB\Animall\CloseBody\B_N826037.jpg,Animall,CloseBody,2,18,Animall,5,1.05333920003613,1.16955360001884,1
C:\psychtool\AnimalDB\AnimalDB\Animall\Head\H_N427097.jpg,Animall,Head,2,19,Animall,5,0.879079799982719,0.993784299993422,1
C:\psychtool\AnimalDB\AnimalDB\NonAnimall\FarBody\Fdn_open14.jpg,NonAnimall,FarBody,2,20,NonAnimall,5,1.32350960001349,1.4384088999941,1
C:\psychtool\AnimalDB\AnimalDB\NonAnimall\MediumBody\Mdn_N328025.jpg,NonAnimall,MediumBody,2,21,NonAnimall,5,1.10414870001841,1.22091039997758,1
C:\psychtool\AnimalDB\AnimalDB\Animall\FarBody\F_N253065.jpg,Animall,FarBody,2,22,NonAnimall,5,1.28234620002331,1.39704900002107,0
C:\psychtool\AnimalDB\AnimalDB\Animall\MediumBody\M_N109046.jpg,Animall,MediumBody,2,23,Animall,5,0.986572900030296,1.10190250002779,1
C:\psychtool\AnimalDB\AnimalDB\NonAnimall\Head\Hdn_natu337.jpg,NonAnimall,Head,2,24,Animall,5,0.931128700030968,1.04618940001819,0
C:\psychtool\AnimalDB\AnimalDB\Animall\MediumBody\M_N289038.jpg,Animall,MediumBody,2,25,Animall,5,0.940275699947961,1.05579469999066,1
C:\psychtool\AnimalDB\AnimalDB\Animall\FarBody\F_N828004.jpg,Animall,FarBody,2,26,Animall,3,1.31212100002449,1.4270221000188,1
C:\psychtool\AnimalDB\AnimalDB\NonAnimall\Head\Hdn_natu369.jpg,NonAnimall,Head,2,27,Animall,5,0.750049500027671,0.864820400020108,0
C:\psychtool\AnimalDB\AnimalDB\Animall\Head\H_N707010.jpg,Animall,Head,2,28,Animall,5,1.33983760001138,1.4546682999935,1
C:\psychtool\AnimalDB\AnimalDB\NonAnimall\MediumBody\Mdn_N266002.jpg,NonAnimall,MediumBody,2,29,NonAnimall,5,0.998084000020754,1.11285119998502,1
C:\psychtool\AnimalDB\AnimalDB\Animall\Head\H_N659022.jpg,Animall,Head,2,30,Animall,5,0.731743599986658,0.84644599998137,1
C:\psychtool\AnimalDB\AnimalDB\NonAnimall\CloseBody\Bdn_nat1164.jpg,NonAnimall,CloseBody,2,31,Animall,2,1.62491309997858,1.7397300999728,0
C:\psychtool\AnimalDB\AnimalDB\NonAnimall\MediumBody\Mdn_N347022.jpg,NonAnimall,MediumBody,2,32,NonAnimall,5,1.10192919999827,1.21656629996141,1
C:\psychtool\AnimalDB\AnimalDB\Animall\FarBody\F_N802091.jpg,Animall,FarBody,2,33,Animall,5,1.12417690001894,1.23900940001477,1
C:\psychtool\AnimalDB\AnimalDB\NonAnimall\MediumBody\Mdn_text113.jpg,NonAnimall,MediumBody,2,34,NonAnimall,5,1.41661770001519,1.53122870001243,1
C:\psychtool\AnimalDB\AnimalDB\NonAnimall\FarBody\Fdn_nat283.jpg,NonAnimall,FarBody,2,35,NonAnimall,5,0.933103299990762,1.04785580001771,1
C:\psychtool\AnimalDB\AnimalDB\NonAnimall\Head\Hdn_objn44.jpg,NonAnimall,Head,2,36,NonAnimall,5,1.33692339999834,1.45223359996453,1
C:\psychtool\AnimalDB\AnimalDB\Animall\CloseBody\B_N268033.jpg,Animall,CloseBody,2,37,Animall,5,0.94564019999234,1.06050799996592,1
C:\psychtool\AnimalDB\AnimalDB\Animall\MediumBody\M_N110046.jpg,Animall,MediumBody,2,38,Animall,5,0.904142100014724,1.01947270001983,1
C:\psychtool\AnimalDB\AnimalDB\Animall\MediumBody\M_N415038.jpg,Animall,MediumBody,2,39,Animall,5,0.877683099999558,0.992203600006178,1
C:\psychtool\AnimalDB\AnimalDB\NonAnimall\MediumBody\Mdn_natu696.jpg,NonAnimall,MediumBody,2,40,NonAnimall,5,0.990055600006599,1.10481900000013,1
C:\psychtool\AnimalDB\AnimalDB\NonAnimall\Head\Hdn_objn227.jpg,NonAnimall,Head,2,41,NonAnimall,5,1.07732440001564,1.19204290001653,1
C:\psychtool\AnimalDB\AnimalDB\Animall\CloseBody\B_N209070.jpg,Animall,CloseBody,2,42,Animall,5,0.743146499968134,0.857861500000581,1
C:\psychtool\AnimalDB\AnimalDB\Animall\Head\H_N168068.jpg,Animall,Head,2,43,Animall,5,0.809594599995762,0.924308999965433,1
C:\psychtool\AnimalDB\AnimalDB\Animall\CloseBody\B_N825059.jpg,Animall,CloseBody,2,44,Animall,5,0.698951099999249,0.813711200025864,1
C:\psychtool\AnimalDB\AnimalDB\NonAnimall\CloseBody\Bdn_text5.jpg,NonAnimall,CloseBody,2,45,NonAnimall,3,1.70386529999087,1.81866940000327,1
C:\psychtool\AnimalDB\AnimalDB\Animall\Head\H_N160056.jpg,Animall,Head,2,46,Animall,5,0.641296299989335,0.756114199990407,1
C:\psychtool\AnimalDB\AnimalDB\NonAnimall\MediumBody\Mdn_land750.jpg,NonAnimall,MediumBody,2,47,NonAnimall,5,1.05876429995988,1.1738989999867,1
C:\psychtool\AnimalDB\AnimalDB\Animall\Head\H_N415046.jpg,Animall,Head,2,48,Animall,5,0.785331999999471,0.900796799978707,1
C:\psychtool\AnimalDB\AnimalDB\Animall\FarBody\F_N253078.jpg,Animall,FarBody,2,49,NonAnimall,5,0.918498500017449,1.03505900001619,0
C:\psychtool\AnimalDB\AnimalDB\Animall\MediumBody\M_N168034.jpg,Animall,MediumBody,2,50,NonAnimall,3,1.24256530002458,1.357335699955,0
C:\psychtool\AnimalDB\AnimalDB\Animall\MediumBody\M_N707090.jpg,Animall,MediumBody,2,51,Animall,5,0.732283799967263,0.847047100018244,1
C:\psychtool\AnimalDB\AnimalDB\NonAnimall\Head\Hdn_objn190.jpg,NonAnimall,Head,2,52,NonAnimall,5,0.957434299984016,1.07332699996186,1
C:\psychtool\AnimalDB\AnimalDB\NonAnimall\Head\Hdn_objn33.jpg,NonAnimall,Head,2,53,NonAnimall,3,1.32849059998989,1.44334549998166,1
C:\psychtool\AnimalDB\AnimalDB\Animall\FarBody\F_N253036.jpg,Animall,FarBody,2,54,Animall,3,2.01637039997149,2.131048500014,1
C:\psychtool\AnimalDB\AnimalDB\Animall\Head\H_N824022.jpg,Animall,Head,2,55,Animall,5,0.689377300033811,0.804195100034121,1
C:\psychtool\AnimalDB\AnimalDB\NonAnimall\MediumBody\Mdn_nat363.jpg,NonAnimall,MediumBody,2,56,NonAnimall,4,1.52511670003878,1.63974660000531,1
C:\psychtool\AnimalDB\AnimalDB\NonAnimall\CloseBody\Bdn_natu5.jpg,NonAnimall,CloseBody,2,57,NonAnimall,5,0.860751399945002,0.975645799946506,1
C:\psychtool\AnimalDB\AnimalDB\NonAnimall\Head\Hdn_objn181.jpg,NonAnimall,Head,2,58,NonAnimall,5,0.741142800019588,0.855825799982995,1
C:\psychtool\AnimalDB\AnimalDB\NonAnimall\Head\Hdn_N124002.jpg,NonAnimall,Head,2,59,NonAnimall,5,0.793691599974409,0.908472000039183,1
C:\psychtool\AnimalDB\AnimalDB\NonAnimall\FarBody\Fdn_bea39.jpg,NonAnimall,FarBody,2,60,NonAnimall,5,1.31622350000544,1.43084829999134,1
C:\psychtool\AnimalDB\AnimalDB\Animall\Head\H_N134043.jpg,Animall,Head,2,61,Animall,5,0.858202100032941,0.973023600003216,1
C:\psychtool\AnimalDB\AnimalDB\NonAnimall\MediumBody\Mdn_nat634.jpg,NonAnimall,MediumBody,2,62,NonAnimall,5,0.952385200012941,1.06841489998624,1
C:\psychtool\AnimalDB\AnimalDB\NonAnimall\CloseBody\Bdn_land71.jpg,NonAnimall,CloseBody,2,63,Animall,5,0.892226000025403,1.00735279999208,0
C:\psychtool\AnimalDB\AnimalDB\NonAnimall\Head\Hdn_objn38.jpg,NonAnimall,Head,2,64,NonAnimall,5,0.937346499995328,1.05417789996136,1
C:\psychtool\AnimalDB\AnimalDB\NonAnimall\MediumBody\Mdn_natu462.jpg,NonAnimall,MediumBody,2,65,Animall,5,1.01768519997131,1.13288809999358,0
C:\psychtool\AnimalDB\AnimalDB\Animall\MediumBody\M_N130060.jpg,Animall,MediumBody,2,66,Animall,5,0.77490769996075,0.889752900053281,1
C:\psychtool\AnimalDB\AnimalDB\NonAnimall\CloseBody\Bdn_text119.jpg,NonAnimall,CloseBody,2,67,Animall,5,0.780570000002626,0.895375999971293,0
C:\psychtool\AnimalDB\AnimalDB\Animall\FarBody\F_N408060.jpg,Animall,FarBody,2,68,Animall,5,0.834291099978145,0.94860309996875,1
C:\psychtool\AnimalDB\AnimalDB\NonAnimall\CloseBody\Bdn_text18.jpg,NonAnimall,CloseBody,2,69,NonAnimall,5,1.11768780002603,1.23317590000806,1
C:\psychtool\AnimalDB\AnimalDB\Animall\Head\H_N427068.jpg,Animall,Head,2,70,Animall,5,0.717725499998778,0.83266780001577,1
C:\psychtool\AnimalDB\AnimalDB\NonAnimall\MediumBody\Mdn_land94.jpg,NonAnimall,MediumBody,2,71,Animall,3,1.26185939996503,1.37606089998735,0
C:\psychtool\AnimalDB\AnimalDB\NonAnimall\MediumBody\Mdn_N228077.jpg,NonAnimall,MediumBody,2,72,NonAnimall,5,1.06022370001301,1.17464169999585,1
C:\psychtool\AnimalDB\AnimalDB\Animall\FarBody\F_N816057.jpg,Animall,FarBody,2,73,Animall,5,1.48642950004432,1.60122989997035,1
C:\psychtool\AnimalDB\AnimalDB\NonAnimall\MediumBody\Mdn_N347015.jpg,NonAnimall,MediumBody,2,74,NonAnimall,5,1.87642490002327,1.99120009999024,1
C:\psychtool\AnimalDB\AnimalDB\Animall\MediumBody\M_N253087.jpg,Animall,MediumBody,2,75,Animall,5,0.96225709997816,1.07722939999076,1
C:\psychtool\AnimalDB\AnimalDB\NonAnimall\Head\Hdn_N127068.jpg,NonAnimall,Head,2,76,NonAnimall,5,0.966511300008278,1.08135620004032,1
C:\psychtool\AnimalDB\AnimalDB\NonAnimall\Head\Hdn_objn24.jpg,NonAnimall,Head,2,77,NonAnimall,5,1.3001452999888,1.41490589996101,1
C:\psychtool\AnimalDB\AnimalDB\NonAnimall\FarBody\Fdn_bea10.jpg,NonAnimall,FarBody,2,78,Animall,5,1.17698970000492,1.29182189999847,0
C:\psychtool\AnimalDB\AnimalDB\Animall\CloseBody\B_N253041.jpg,Animall,CloseBody,2,79,Animall,5,0.984485999972094,1.10017319995677,1
C:\psychtool\AnimalDB\AnimalDB\NonAnimall\Head\Hdn_objn56.jpg,NonAnimall,Head,2,80,Animall,2,1.72247999999672,1.83740349998698,0
C:\psychtool\AnimalDB\AnimalDB\NonAnimall\Head\Hdn_objn31.jpg,NonAnimall,Head,2,81,Animall,3,1.70171880000271,1.81651809997857,0
C:\psychtool\AnimalDB\AnimalDB\NonAnimall\FarBody\Fdn_nat297.jpg,NonAnimall,FarBody,2,82,NonAnimall,5,1.03453050000826,1.14942410000367,1
C:\psychtool\AnimalDB\AnimalDB\NonAnimall\MediumBody\Mdn_N344070.jpg,NonAnimall,MediumBody,2,83,NonAnimall,5,1.03470169997308,1.1498736999929,1
C:\psychtool\AnimalDB\AnimalDB\NonAnimall\MediumBody\Mdn_natu302.jpg,NonAnimall,MediumBody,2,84,Animall,5,0.874696700018831,0.989234400040004,0
C:\psychtool\AnimalDB\AnimalDB\Animall\CloseBody\B_N825047.jpg,Animall,CloseBody,2,85,Animall,5,0.903977999987546,1.01969230000395,1
C:\psychtool\AnimalDB\AnimalDB\NonAnimall\CloseBody\Bdn_text1.jpg,NonAnimall,CloseBody,2,86,NonAnimall,2,1.4410667999764,1.55603059998248,1
C:\psychtool\AnimalDB\AnimalDB\Animall\FarBody\F_N408020.jpg,Animall,FarBody,2,87,Animall,5,2.20859459997155,2.32342299999436,1
C:\psychtool\AnimalDB\AnimalDB\Animall\Head\H_N676064.jpg,Animall,Head,2,88,Animall,5,1.00147279998055,1.11692970001604,1
C:\psychtool\AnimalDB\AnimalDB\NonAnimall\MediumBody\Mdn_N251013.jpg,NonAnimall,MediumBody,2,89,NonAnimall,4,1.25360910000745,1.36864110000897,1
C:\psychtool\AnimalDB\AnimalDB\NonAnimall\Head\Hdn_objn22.jpg,NonAnimall,Head,2,90,Animall,3,2.28665730002103,2.40198239998426,0
C:\psychtool\AnimalDB\AnimalDB\Animall\FarBody\F_N485007.jpg,Animall,FarBody,2,91,Animall,5,0.8743241999764,0.989120399986859,1
C:\psychtool\AnimalDB\AnimalDB\NonAnimall\MediumBody\Mdn_natu590.jpg,NonAnimall,MediumBody,2,92,NonAnimall,5,0.990666900004726,1.1054209000431,1
C:\psychtool\AnimalDB\AnimalDB\Animall\MediumBody\M_N173035.jpg,Animall,MediumBody,2,93,Animall,4,1.0487843999872,1.16349960002117,1
C:\psychtool\AnimalDB\AnimalDB\Animall\Head\H_N130063.jpg,Animall,Head,2,94,Animall,5,1.02880059997551,1.14355320000323,1
C:\psychtool\AnimalDB\AnimalDB\NonAnimall\CloseBody\Bdn_text14.jpg,NonAnimall,CloseBody,2,95,NonAnimall,5,1.04924000002211,1.16398169996683,1
C:\psychtool\AnimalDB\AnimalDB\Animall\Head\H_N209036.jpg,Animall,Head,2,96,Animall,5,0.749077200016472,0.863854800001718,1
C:\psychtool\AnimalDB\AnimalDB\Animall\CloseBody\B_N168089.jpg,Animall,CloseBody,2,97,Animall,5,0.81098710000515,0.92586780001875,1
C:\psychtool\AnimalDB\AnimalDB\NonAnimall\CloseBody\Bdn_for122.jpg,NonAnimall,CloseBody,2,98,Animall,2,1.63456880004378,1.75010339997243,0
C:\psychtool\AnimalDB\AnimalDB\Animall\CloseBody\B_N826005.jpg,Animall,CloseBody,2,99,Animall,5,0.900456299947109,1.01601830002619,1
C:\psychtool\AnimalDB\AnimalDB\Animall\MediumBody\M_N168014.jpg,Animall,MediumBody,2,100,Animall,5,0.375423100020271,0.490361700009089,1
C:\psychtool\AnimalDB\AnimalDB\NonAnimall\FarBody\Fdn_nat376.jpg,NonAnimall,FarBody,2,101,NonAnimall,3,1.58412319998024,1.69882310001412,1
C:\psychtool\AnimalDB\AnimalDB\Animall\CloseBody\B_N826006.jpg,Animall,CloseBody,2,102,Animall,5,0.809797000023536,0.924598400015384,1
C:\psychtool\AnimalDB\AnimalDB\NonAnimall\Head\Hdn_N124058.jpg,NonAnimall,Head,2,103,NonAnimall,5,1.52045270003146,1.63708880002378,1
C:\psychtool\AnimalDB\AnimalDB\NonAnimall\Head\Hdn_objn180.jpg,NonAnimall,Head,2,104,NonAnimall,5,0.926275500038173,1.04097380000167,1
C:\psychtool\AnimalDB\AnimalDB\Animall\CloseBody\B_N828097.jpg,Animall,CloseBody,2,105,Animall,5,0.836850500025321,0.952710800047498,1
C:\psychtool\AnimalDB\AnimalDB\Animall\MediumBody\M_N130010.jpg,Animall,MediumBody,2,106,Animall,5,1.04839690000517,1.16331820003688,1
C:\psychtool\AnimalDB\AnimalDB\Animall\CloseBody\B_N826043.jpg,Animall,CloseBody,2,107,Animall,5,0.773313500045333,0.888206399977207,1
C:\psychtool\AnimalDB\AnimalDB\Animall\CloseBody\B_N289048.jpg,Animall,CloseBody,2,108,Animall,5,0.410570499952883,0.525391499977559,1
C:\psychtool\AnimalDB\AnimalDB\Animall\FarBody\F_N408047.jpg,Animall,FarBody,2,109,Animall,5,0.584703600034118,0.701145300001372,1
C:\psychtool\AnimalDB\AnimalDB\NonAnimall\Head\Hdn_natu354.jpg,NonAnimall,Head,2,110,Animall,3,1.49498670001049,1.60976590000791,0
C:\psychtool\AnimalDB\AnimalDB\NonAnimall\CloseBody\Bdn_text3.jpg,NonAnimall,CloseBody,2,111,NonAnimall,5,0.872513799986336,0.987331399985123,1
C:\psychtool\AnimalDB\AnimalDB\Animall\Head\H_N209038.jpg,Animall,Head,2,112,Animall,5,0.877206599980127,0.991998000012245,1
C:\psychtool\AnimalDB\AnimalDB\NonAnimall\FarBody\Fdn_land805.jpg,NonAnimall,FarBody,2,113,NonAnimall,3,1.47050870000385,1.58618729998125,1
C:\psychtool\AnimalDB\AnimalDB\Animall\Head\H_N247087.jpg,Animall,Head,2,114,Animall,5,0.700018599978648,0.8147279000259,1
C:\psychtool\AnimalDB\AnimalDB\Animall\Head\H_N816096.jpg,Animall,Head,2,115,Animall,5,0.54955269995844,0.664290600048844,1
C:\psychtool\AnimalDB\AnimalDB\Animall\MediumBody\M_N289028.jpg,Animall,MediumBody,2,116,Animall,5,0.428209399979096,0.542819199967198,1
C:\psychtool\AnimalDB\AnimalDB\Animall\Head\H_N130002.jpg,Animall,Head,2,117,Animall,5,0.475808100018185,0.590638800000306,1
C:\psychtool\AnimalDB\AnimalDB\Animall\CloseBody\B_N824085.jpg,Animall,CloseBody,2,118,Animall,5,0.456621900026221,0.571494999981951,1
C:\psychtool\AnimalDB\AnimalDB\NonAnimall\FarBody\Fdn_nat194.jpg,NonAnimall,FarBody,2,119,NonAnimall,5,1.03717460000189,1.15408390003722,1
C:\psychtool\AnimalDB\AnimalDB\NonAnimall\CloseBody\Bdn_text16.jpg,NonAnimall,CloseBody,2,120,Animall,5,1.31261620001169,1.42733709997265,0
C:\psychtool\AnimalDB\AnimalDB\NonAnimall\CloseBody\Bdn_text15.jpg,NonAnimall,CloseBody,3,1,NonAnimall,5,1.47054410004057,1.58718309999676,1
C:\psychtool\AnimalDB\AnimalDB\Animall\CloseBody\B_N253099.jpg,Animall,CloseBody,3,2,Animall,5,1.21376210002927,1.32864300004439,1
C:\psychtool\AnimalDB\AnimalDB\NonAnimall\Head\Hda_int168.jpg,NonAnimall,Head,3,3,NonAnimall,5,0.994126999983564,1.10841859999346,1
C:\psychtool\AnimalDB\AnimalDB\Animall\Head\H_N676042.jpg,Animall,Head,3,4,Animall,5,1.29667259997223,1.41138950001914,1
C:\psychtool\AnimalDB\AnimalDB\Animall\MediumBody\M_N268010.jpg,Animall,MediumBody,3,5,Animall,5,0.707686900044791,0.822662299964577,1
C:\psychtool\AnimalDB\AnimalDB\Animall\Head\H_N471000.jpg,Animall,Head,3,6,Animall,5,0.983064899977762,1.09781579999253,1
C:\psychtool\AnimalDB\AnimalDB\NonAnimall\CloseBody\Bdn_natu133.jpg,NonAnimall,CloseBody,3,7,Animall,5,1.34878579998622,1.46342879999429,0
C:\psychtool\AnimalDB\AnimalDB\Animall\FarBody\F_N314093.jpg,Animall,FarBody,3,8,Animall,5,0.451400100020692,0.566833699995186,1
C:\psychtool\AnimalDB\AnimalDB\Animall\CloseBody\B_N209044.jpg,Animall,CloseBody,3,9,Animall,5,0.444715600053314,0.559569700038992,1
C:\psychtool\AnimalDB\AnimalDB\NonAnimall\FarBody\Fdn_sclos3.jpg,NonAnimall,FarBody,3,10,Animall,5,0.402144299994688,0.518138999992516,0
C:\psychtool\AnimalDB\AnimalDB\Animall\Head\H_N824074.jpg,Animall,Head,3,11,Animall,5,0.409469400008675,0.524192799988668,1
C:\psychtool\AnimalDB\AnimalDB\Animall\MediumBody\M_N160002.jpg,Animall,MediumBody,3,12,Animall,5,0.370696400001179,0.48771019995911,1
C:\psychtool\AnimalDB\AnimalDB\NonAnimall\CloseBody\Bdn_nat219.jpg,NonAnimall,CloseBody,3,13,NonAnimall,5,1.24868139997125,1.3634669999592,1
C:\psychtool\AnimalDB\AnimalDB\NonAnimall\MediumBody\Mdn_nat1253.jpg,NonAnimall,MediumBody,3,14,NonAnimall,3,1.25849799998105,1.3741893999977,1
C:\psychtool\AnimalDB\AnimalDB\NonAnimall\FarBody\Fdn_land867.jpg,NonAnimall,FarBody,3,15,NonAnimall,5,1.3153301999555,1.43005860003177,1
C:\psychtool\AnimalDB\AnimalDB\NonAnimall\CloseBody\Bdn_land861.jpg,NonAnimall,CloseBody,3,16,Animall,5,0.909149800019804,1.02390010003,0
C:\psychtool\AnimalDB\AnimalDB\Animall\FarBody\F_N828048.jpg,Animall,FarBody,3,17,NonAnimall,3,1.74802510003792,1.86359010002343,0
C:\psychtool\AnimalDB\AnimalDB\NonAnimall\MediumBody\Mdn_land170.jpg,NonAnimall,MediumBody,3,18,NonAnimall,5,1.05393529997673,1.17009750002762,1
C:\psychtool\AnimalDB\AnimalDB\Animall\FarBody\F_N815088.jpg,Animall,FarBody,3,19,Animall,5,0.704231000039726,0.821051299979445,1
C:\psychtool\AnimalDB\AnimalDB\Animall\CloseBody\B_N209052.jpg,Animall,CloseBody,3,20,Animall,5,0.770492099982221,0.887225299957208,1
C:\psychtool\AnimalDB\AnimalDB\Animall\Head\H_N247049.jpg,Animall,Head,3,21,Animall,5,0.782168599951547,0.897239100013394,1
C:\psychtool\AnimalDB\AnimalDB\Animall\FarBody\F_N828028.jpg,Animall,FarBody,3,22,Animall,5,0.691463600029238,0.806281900033355,1
C:\psychtool\AnimalDB\AnimalDB\NonAnimall\CloseBody\Bdn_text2.jpg,NonAnimall,CloseBody,3,23,Animall,5,0.800394599966239,0.915186100057326,0
C:\psychtool\AnimalDB\AnimalDB\NonAnimall\Head\Hdn_N152064.jpg,NonAnimall,Head,3,24,Animall,5,0.522993999999017,0.637549200037029,0
C:\psychtool\AnimalDB\AnimalDB\Animall\MediumBody\M_N136054.jpg,Animall,MediumBody,3,25,Animall,5,0.460026500048116,0.574907600006554,1
C:\psychtool\AnimalDB\AnimalDB\Animall\FarBody\F_N676063.jpg,Animall,FarBody,3,26,Animall,5,0.44313400000101,0.557937900011893,1
C:\psychtool\AnimalDB\AnimalDB\NonAnimall\FarBody\Fdn_nat322.jpg,NonAnimall,FarBody,3,27,NonAnimall,4,1.10385140002472,1.21960080001736,1
C:\psychtool\AnimalDB\AnimalDB\NonAnimall\FarBody\Fdn_nat1238.jpg,NonAnimall,FarBody,3,28,NonAnimall,3,1.26162750000367,1.37648840004113,1
C:\psychtool\AnimalDB\AnimalDB\NonAnimall\MediumBody\Mdn_natu172.jpg,NonAnimall,MediumBody,3,29,NonAnimall,5,1.07561759999953,1.19040200003656,1
C:\psychtool\AnimalDB\AnimalDB\Animall\FarBody\F_N173006.jpg,Animall,FarBody,3,30,Animall,5,0.708097699971404,0.822963499987964,1
C:\psychtool\AnimalDB\AnimalDB\Animall\CloseBody\B_N826018.jpg,Animall,CloseBody,3,31,Animall,5,0.792466900020372,0.907198900007643,1
C:\psychtool\AnimalDB\AnimalDB\Animall\FarBody\F_N289017.jpg,Animall,FarBody,3,32,Animall,5,0.783892500039656,0.898702899983618,1
C:\psychtool\AnimalDB\AnimalDB\NonAnimall\MediumBody\Mdn_nat367.jpg,NonAnimall,MediumBody,3,33,NonAnimall,5,0.965052200015634,1.07988709997153,1
C:\psychtool\AnimalDB\AnimalDB\Animall\Head\H_N825085.jpg,Animall,Head,3,34,Animall,5,0.57638839998981,0.691197699983604,1
C:\psychtool\AnimalDB\AnimalDB\Animall\Head\H_N160016.jpg,Animall,Head,3,35,Animall,5,0.663563300040551,0.778242899978068,1
C:\psychtool\AnimalDB\AnimalDB\NonAnimall\Head\Hdn_objn200.jpg,NonAnimall,Head,3,36,NonAnimall,5,1.15939059999073,1.27409449999686,1
C:\psychtool\AnimalDB\AnimalDB\NonAnimall\FarBody\Fdn_open5.jpg,NonAnimall,FarBody,3,37,NonAnimall,5,1.44117720000213,1.55600280000363,1
C:\psychtool\AnimalDB\AnimalDB\Animall\CloseBody\B_N802045.jpg,Animall,CloseBody,3,38,Animall,5,0.849461900012102,0.964223899994977,1
C:\psychtool\AnimalDB\AnimalDB\Animall\CloseBody\B_N826047.jpg,Animall,CloseBody,3,39,Animall,5,0.724004800023977,0.838874399953056,1
C:\psychtool\AnimalDB\AnimalDB\NonAnimall\CloseBody\Bdn_text106.jpg,NonAnimall,CloseBody,3,40,NonAnimall,5,1.08988450001925,1.20468089997303,1
C:\psychtool\AnimalDB\AnimalDB\NonAnimall\CloseBody\Bdn_nat250.jpg,NonAnimall,CloseBody,3,41,NonAnimall,5,1.18339280004147,1.29803190001985,1
C:\psychtool\AnimalDB\AnimalDB\NonAnimall\MediumBody\Mdn_for72.jpg,NonAnimall,MediumBody,3,42,NonAnimall,3,1.16694939997979,1.2817434000317,1
C:\psychtool\AnimalDB\AnimalDB\Animall\MediumBody\M_N136020.jpg,Animall,MediumBody,3,43,Animall,5,0.747355700004846,0.862044400011655,1
C:\psychtool\AnimalDB\AnimalDB\Animall\FarBody\F_N828029.jpg,Animall,FarBody,3,44,Animall,4,1.13206500001252,1.24698970001191,1
C:\psychtool\AnimalDB\AnimalDB\Animall\MediumBody\M_N130045.jpg,Animall,MediumBody,3,45,Animall,5,0.839802199974656,0.954610699962359,1
C:\psychtool\AnimalDB\AnimalDB\NonAnimall\Head\Hda_room425.jpg,NonAnimall,Head,3,46,NonAnimall,5,1.08413219999056,1.19900270004291,1
C:\psychtool\AnimalDB\AnimalDB\Animall\Head\H_N123022.jpg,Animall,Head,3,47,Animall,5,0.764652899990324,0.879362700041384,1
C:\psychtool\AnimalDB\AnimalDB\Animall\FarBody\F_N408098.jpg,Animall,FarBody,3,48,Animall,5,0.717734700010624,0.833211000019219,1
C:\psychtool\AnimalDB\AnimalDB\NonAnimall\FarBody\Fdn_land293.jpg,NonAnimall,FarBody,3,49,NonAnimall,5,1.00778839999111,1.12266330001876,1
C:\psychtool\AnimalDB\AnimalDB\Animall\FarBody\F_N289063.jpg,Animall,FarBody,3,50,Animall,5,0.63135710003553,0.746326100022998,1
C:\psychtool\AnimalDB\AnimalDB\NonAnimall\FarBody\Fdn_text26.jpg,NonAnimall,FarBody,3,51,NonAnimall,3,1.26342000003206,1.3781918999739,1
C:\psychtool\AnimalDB\AnimalDB\Animall\MediumBody\M_N109073.jpg,Animall,MediumBody,3,52,Animall,5,0.884945600002538,0.999634200008586,1
C:\psychtool\AnimalDB\AnimalDB\Animall\FarBody\F_N173011.jpg,Animall,FarBody,3,53,NonAnimall,5,1.06817250000313,1.18445430003339,0
C:\psychtool\AnimalDB\AnimalDB\Animall\FarBody\F_N310039.jpg,Animall,FarBody,3,54,Animall,5,0.670278700010385,0.787393899983726,1
C:\psychtool\AnimalDB\AnimalDB\NonAnimall\Head\Hdn_objn129.jpg,NonAnimall,Head,3,55,Animall,5,1.03265560005093,1.14737810002407,0
C:\psychtool\AnimalDB\AnimalDB\NonAnimall\CloseBody\Bdn_land378.jpg,NonAnimall,CloseBody,3,56,NonAnimall,5,0.939676699985284,1.0546385999769,1
C:\psychtool\AnimalDB\AnimalDB\NonAnimall\CloseBody\Bdn_for82.jpg,NonAnimall,CloseBody,3,57,NonAnimall,3,1.03422919998411,1.14912800001912,1
C:\psychtool\AnimalDB\AnimalDB\NonAnimall\Head\Hdn_objn202.jpg,NonAnimall,Head,3,58,NonAnimall,5,0.910000999982003,1.02468360000057,1
C:\psychtool\AnimalDB\AnimalDB\NonAnimall\Head\Hdn_objn42.jpg,NonAnimall,Head,3,59,NonAnimall,5,1.09296709997579,1.2077888000058,1
C:\psychtool\AnimalDB\AnimalDB\Animall\FarBody\F_N408050.jpg,Animall,FarBody,3,60,Animall,5,0.951407999964431,1.06733399996301,1
C:\psychtool\AnimalDB\AnimalDB\Animall\CloseBody\B_N816056.jpg,Animall,CloseBody,3,61,Animall,5,0.418295899988152,0.534193600004073,1
C:\psychtool\AnimalDB\AnimalDB\NonAnimall\FarBody\Fdn_land356.jpg,NonAnimall,FarBody,3,62,NonAnimall,5,1.27319109998643,1.38808309996966,1
C:\psychtool\AnimalDB\AnimalDB\NonAnimall\CloseBody\Bda_urb291.jpg,NonAnimall,CloseBody,3,63,NonAnimall,5,0.853830400039442,0.969990300014615,1
C:\psychtool\AnimalDB\AnimalDB\NonAnimall\CloseBody\Bdn_land759.jpg,NonAnimall,CloseBody,3,64,NonAnimall,3,1.07848659995943,1.19337689998792,1
C:\psychtool\AnimalDB\AnimalDB\Animall\Head\H_N826048.jpg,Animall,Head,3,65,Animall,5,0.818960400007199,0.934756899951026,1
C:\psychtool\AnimalDB\AnimalDB\Animall\CloseBody\B_N824045.jpg,Animall,CloseBody,3,66,Animall,5,0.799794899998233,0.914621600008104,1
C:\psychtool\AnimalDB\AnimalDB\NonAnimall\CloseBody\Bdn_natu350.jpg,NonAnimall,CloseBody,3,67,Animall,5,0.732193999981973,0.846941899973899,0
C:\psychtool\AnimalDB\AnimalDB\Animall\Head\H_N408065.jpg,Animall,Head,3,68,Animall,5,0.711434600001667,0.826325399975758,1
C:\psychtool\AnimalDB\AnimalDB\Animall\Head\H_N173097.jpg,Animall,Head,3,69,Animall,5,0.801252799981739,0.916575599985663,1
C:\psychtool\AnimalDB\AnimalDB\NonAnimall\CloseBody\Bdn_natu676.jpg,NonAnimall,CloseBody,3,70,NonAnimall,5,0.998339300043881,1.11309820000315,1
C:\psychtool\AnimalDB\AnimalDB\Animall\MediumBody\M_N815026.jpg,Animall,MediumBody,3,71,Animall,5,0.648710399982519,0.763416000001598,1
C:\psychtool\AnimalDB\AnimalDB\NonAnimall\FarBody\Fdn_land362.jpg,NonAnimall,FarBody,3,72,NonAnimall,5,1.08179829997243,1.19660550000845,1
C:\psychtool\AnimalDB\AnimalDB\Animall\CloseBody\B_N815023.jpg,Animall,CloseBody,3,73,Animall,5,0.683099300018512,0.797667099977843,1
C:\psychtool\AnimalDB\AnimalDB\Animall\FarBody\F_N408016.jpg,Animall,FarBody,3,74,Animall,5,0.758715400006622,0.873566799971741,1
C:\psychtool\AnimalDB\AnimalDB\NonAnimall\FarBody\Fda_A219084.jpg,NonAnimall,FarBody,3,75,NonAnimall,5,1.01828489999752,1.13307559996611,1
C:\psychtool\AnimalDB\AnimalDB\Animall\CloseBody\B_N247043.jpg,Animall,CloseBody,3,76,Animall,5,0.661529099976178,0.77633630001219,1
C:\psychtool\AnimalDB\AnimalDB\NonAnimall\FarBody\Fdn_land11.jpg,NonAnimall,FarBody,3,77,NonAnimall,5,0.864022199995816,0.978907699987758,1
C:\psychtool\AnimalDB\AnimalDB\Animall\MediumBody\M_N289045.jpg,Animall,MediumBody,3,78,Animall,5,0.718242500035558,0.832789800013416,1
C:\psychtool\AnimalDB\AnimalDB\Animall\Head\H_N209040.jpg,Animall,Head,3,79,Animall,5,0.58310970000457,0.697758900001645,1
C:\psychtool\AnimalDB\AnimalDB\NonAnimall\Head\Hdn_objn177.jpg,NonAnimall,Head,3,80,NonAnimall,5,0.945355800038669,1.06020289997105,1
C:\psychtool\AnimalDB\AnimalDB\NonAnimall\MediumBody\Mdn_N347003.jpg,NonAnimall,MediumBody,3,81,NonAnimall,3,1.12941210001009,1.24410119996173,1
C:\psychtool\AnimalDB\AnimalDB\NonAnimall\FarBody\Fdn_natu139.jpg,NonAnimall,FarBody,3,82,NonAnimall,5,1.03465470002266,1.14931670000078,1
C:\psychtool\AnimalDB\AnimalDB\Animall\Head\H_N828096.jpg,Animall,Head,3,83,Animall,5,1.09820850001415,0.793703100003768,1
C:\psychtool\AnimalDB\AnimalDB\Animall\CloseBody\B_N816052.jpg,Animall,CloseBody,3,84,Animall,5,0.339822700014338,0.454558500030544,1
C:\psychtool\AnimalDB\AnimalDB\NonAnimall\FarBody\Fdn_natu649.jpg,NonAnimall,FarBody,3,85,Animall,5,1.73418219998712,1.84869549999712,0
C:\psychtool\AnimalDB\AnimalDB\Animall\CloseBody\B_N168078.jpg,Animall,CloseBody,3,86,Animall,5,0.790603899979033,0.905079199990723,1
C:\psychtool\AnimalDB\AnimalDB\NonAnimall\CloseBody\Bdn_objn35.jpg,NonAnimall,CloseBody,3,87,Animall,5,0.391157499980181,0.506099699996412,0
C:\psychtool\AnimalDB\AnimalDB\Animall\FarBody\F_N253028.jpg,Animall,FarBody,3,88,Animall,5,0.99908239999786,1.11462300003041,1
C:\psychtool\AnimalDB\AnimalDB\Animall\MediumBody\M_N130094.jpg,Animall,MediumBody,3,89,Animall,3,1.65861980000045,1.77352950000204,1
C:\psychtool\AnimalDB\AnimalDB\NonAnimall\FarBody\Fdn_bea1.jpg,NonAnimall,FarBody,3,90,NonAnimall,4,1.19954300002428,1.31417069997406,1
C:\psychtool\AnimalDB\AnimalDB\NonAnimall\Head\Hdn_objn173.jpg,NonAnimall,Head,3,91,Animall,2,1.73101970000425,1.84584419999737,0
C:\psychtool\AnimalDB\AnimalDB\Animall\Head\H_N134076.jpg,Animall,Head,3,92,Animall,5,1.00857459998224,1.12337559997104,1
C:\psychtool\AnimalDB\AnimalDB\Animall\Head\H_N427028.jpg,Animall,Head,3,93,Animall,5,0.659177399997134,0.773930600029416,1
C:\psychtool\AnimalDB\AnimalDB\NonAnimall\Head\Hdn_objn137.jpg,NonAnimall,Head,3,94,Animall,3,1.36524620000273,1.47980979998829,0
C:\psychtool\AnimalDB\AnimalDB\Animall\MediumBody\M_N112005.jpg,Animall,MediumBody,3,95,NonAnimall,4,1.11688059999142,1.23152709996793,0
C:\psychtool\AnimalDB\AnimalDB\Animall\CloseBody\B_N771029.jpg,Animall,CloseBody,3,96,Animall,5,0.711011299979873,0.825842500024009,1
C:\psychtool\AnimalDB\AnimalDB\Animall\FarBody\F_N676041.jpg,Animall,FarBody,3,97,Animall,5,0.729087299958337,0.843936400022358,1
C:\psychtool\AnimalDB\AnimalDB\Animall\FarBody\F_N815007.jpg,Animall,FarBody,3,98,Animall,5,0.793993400002364,0.90862299996661,1
C:\psychtool\AnimalDB\AnimalDB\NonAnimall\CloseBody\Bdn_land809.jpg,NonAnimall,CloseBody,3,99,NonAnimall,3,1.20831229997566,1.32308830000693,1
C:\psychtool\AnimalDB\AnimalDB\NonAnimall\Head\Hdn_objn43.jpg,NonAnimall,Head,3,100,NonAnimall,5,0.957595699990634,1.07225680002011,1
C:\psychtool\AnimalDB\AnimalDB\NonAnimall\CloseBody\Bdn_land810.jpg,NonAnimall,CloseBody,3,101,NonAnimall,5,0.957119499973487,1.07185999996727,1
C:\psychtool\AnimalDB\AnimalDB\NonAnimall\FarBody\Fdn_land317.jpg,NonAnimall,FarBody,3,102,NonAnimall,5,0.776162200025283,0.890875399985816,1
C:\psychtool\AnimalDB\AnimalDB\NonAnimall\FarBody\Fdn_open20.jpg,NonAnimall,FarBody,3,103,NonAnimall,5,0.843178300012369,0.957415300013963,1
C:\psychtool\AnimalDB\AnimalDB\NonAnimall\MediumBody\Mdn_nat211.jpg,NonAnimall,MediumBody,3,104,Animall,2,1.59087010001531,1.70589539996581,0
C:\psychtool\AnimalDB\AnimalDB\Animall\MediumBody\M_N314023.jpg,Animall,MediumBody,3,105,Animall,5,0.642787399992812,0.757678399968427,1
C:\psychtool\AnimalDB\AnimalDB\Animall\MediumBody\M_N289058.jpg,Animall,MediumBody,3,106,Animall,5,0.384969100006856,0.500878499995451,1
C:\psychtool\AnimalDB\AnimalDB\NonAnimall\FarBody\Fdn_sclos1.jpg,NonAnimall,FarBody,3,107,NonAnimall,5,0.983208300021943,1.09757230000105,1
C:\psychtool\AnimalDB\AnimalDB\Animall\CloseBody\B_N771072.jpg,Animall,CloseBody,3,108,Animall,5,0.606167100020684,0.720727499981876,1
C:\psychtool\AnimalDB\AnimalDB\Animall\FarBody\F_N310035.jpg,Animall,FarBody,3,109,Animall,5,0.610265700030141,0.725082300021313,1
C:\psychtool\AnimalDB\AnimalDB\Animall\CloseBody\B_N326074.jpg,Animall,CloseBody,3,110,Animall,5,0.411590299976524,0.526367099955678,1
C:\psychtool\AnimalDB\AnimalDB\Animall\CloseBody\B_N816055.jpg,Animall,CloseBody,3,111,Animall,5,0.393256399955135,0.508477499999572,1
C:\psychtool\AnimalDB\AnimalDB\Animall\CloseBody\B_N815060.jpg,Animall,CloseBody,3,112,Animall,5,0.426126800011843,0.54100569995353,1
C:\psychtool\AnimalDB\AnimalDB\Animall\MediumBody\M_N173021.jpg,Animall,MediumBody,3,113,Animall,5,0.312618899974041,0.427612399973441,1
C:\psychtool\AnimalDB\AnimalDB\NonAnimall\FarBody\Fdn_open12.jpg,NonAnimall,FarBody,3,114,NonAnimall,3,1.23690889996942,1.35202109999955,1
C:\psychtool\AnimalDB\AnimalDB\Animall\MediumBody\M_N268045.jpg,Animall,MediumBody,3,115,Animall,5,0.768144599976949,0.883294100000057,1
C:\psychtool\AnimalDB\AnimalDB\Animall\MediumBody\M_N173002.jpg,Animall,MediumBody,3,116,Animall,5,0.422687000012957,0.537676699983422,1
C:\psychtool\AnimalDB\AnimalDB\NonAnimall\Head\Hdn_objn35.jpg,NonAnimall,Head,3,117,Animall,5,0.361101299989969,0.475900299963541,0
C:\psychtool\AnimalDB\AnimalDB\Animall\CloseBody\B_N209091.jpg,Animall,CloseBody,3,118,Animall,5,0.324757700029295,0.439750099962112,1
C:\psychtool\AnimalDB\AnimalDB\Animall\CloseBody\B_N825055.jpg,Animall,CloseBody,3,119,Animall,5,0.393229200039059,0.50810099998489,1
C:\psychtool\AnimalDB\AnimalDB\NonAnimall\MediumBody\Mdn_nat164.jpg,NonAnimall,MediumBody,3,120,NonAnimall,3,1.04829950002022,1.16306400002213,1
C:\psychtool\AnimalDB\AnimalDB\Animall\FarBody\F_N825005.jpg,Animall,FarBody,4,1,Animall,5,0.958461600006558,1.07385320001049,1
C:\psychtool\AnimalDB\AnimalDB\Animall\Head\H_TV646.jpg,Animall,Head,4,2,Animall,5,0.418524899985641,0.534493100014515,1
C:\psychtool\AnimalDB\AnimalDB\Animall\CloseBody\B_N825032.jpg,Animall,CloseBody,4,3,Animall,5,0.448320499970578,0.562969600025099,1
C:\psychtool\AnimalDB\AnimalDB\Animall\Head\H_N485037.jpg,Animall,Head,4,4,Animall,5,0.374484100029804,0.489250399987213,1
C:\psychtool\AnimalDB\AnimalDB\Animall\FarBody\F_N168048.jpg,Animall,FarBody,4,5,Animall,5,0.396001800021622,0.510820399969816,1
C:\psychtool\AnimalDB\AnimalDB\Animall\Head\H_N247091.jpg,Animall,Head,4,6,Animall,5,0.401661699987017,0.517110499960836,1
C:\psychtool\AnimalDB\AnimalDB\NonAnimall\Head\Hdn_objn46.jpg,NonAnimall,Head,4,7,Animall,5,0.420729300007224,0.535996999999043,0
C:\psychtool\AnimalDB\AnimalDB\NonAnimall\FarBody\Fdn_open67.jpg,NonAnimall,FarBody,4,8,NonAnimall,3,1.13272140000481,1.24752539995825,1
C:\psychtool\AnimalDB\AnimalDB\NonAnimall\Head\Hdn_natu28.jpg,NonAnimall,Head,4,9,NonAnimall,3,1.10893519996898,1.22371859999839,1
C:\psychtool\AnimalDB\AnimalDB\Animall\Head\H_N253037.jpg,Animall,Head,4,10,Animall,5,1.0832170000067,1.19809399999212,1
C:\psychtool\AnimalDB\AnimalDB\Animall\FarBody\F_N825013.jpg,Animall,FarBody,4,11,Animall,5,0.356325400003698,0.471166500006802,1
C:\psychtool\AnimalDB\AnimalDB\Animall\CloseBody\B_N253063.jpg,Animall,CloseBody,4,12,Animall,5,0.935464499983937,1.05071509996196,1
C:\psychtool\AnimalDB\AnimalDB\NonAnimall\FarBody\Fdn_natu176.jpg,NonAnimall,FarBody,4,13,NonAnimall,5,1.04810999997426,1.16289689997211,1
C:\psychtool\AnimalDB\AnimalDB\Animall\MediumBody\M_N802029.jpg,Animall,MediumBody,4,14,Animall,5,0.836724799999502,0.952438200009055,1
C:\psychtool\AnimalDB\AnimalDB\Animall\FarBody\F_N815050.jpg,Animall,FarBody,4,15,Animall,5,0.63540779997129,0.752115799987223,1
C:\psychtool\AnimalDB\AnimalDB\Animall\FarBody\F_N485023.jpg,Animall,FarBody,4,16,Animall,5,0.790064500004519,0.90503299998818,1
C:\psychtool\AnimalDB\AnimalDB\NonAnimall\Head\Hdn_natu729.jpg,NonAnimall,Head,4,17,NonAnimall,3,0.961728300026152,1.0766028999933,1
C:\psychtool\AnimalDB\AnimalDB\NonAnimall\FarBody\Fdn_nat1251.jpg,NonAnimall,FarBody,4,18,NonAnimall,4,1.10089150001295,1.21684280002955,1
C:\psychtool\AnimalDB\AnimalDB\Animall\Head\H_N247007.jpg,Animall,Head,4,19,Animall,5,0.826816899992991,0.941475300001912,1
C:\psychtool\AnimalDB\AnimalDB\Animall\Head\H_N247033.jpg,Animall,Head,4,20,Animall,5,0.37594200001331,0.490597099997103,1
C:\psychtool\AnimalDB\AnimalDB\NonAnimall\CloseBody\Bdn_nat216.jpg,NonAnimall,CloseBody,4,21,NonAnimall,3,1.56066059996374,1.67529100005049,1
C:\psychtool\AnimalDB\AnimalDB\Animall\MediumBody\M_N109065.jpg,Animall,MediumBody,4,22,Animall,5,0.625606800022069,0.740415399952326,1
C:\psychtool\AnimalDB\AnimalDB\NonAnimall\Head\Hdn_objn32.jpg,NonAnimall,Head,4,23,NonAnimall,4,1.07024160004221,1.18628010002431,1
C:\psychtool\AnimalDB\AnimalDB\Animall\MediumBody\M_N160059.jpg,Animall,MediumBody,4,24,Animall,5,0.575588399951812,0.690360900014639,1
C:\psychtool\AnimalDB\AnimalDB\NonAnimall\Head\Hdn_N124065.jpg,NonAnimall,Head,4,25,NonAnimall,5,0.999410999997053,1.1140709000174,1
C:\psychtool\AnimalDB\AnimalDB\NonAnimall\Head\Hdn_land840.jpg,NonAnimall,Head,4,26,Animall,3,1.39030989998719,1.50507479999214,0
C:\psychtool\AnimalDB\AnimalDB\Animall\FarBody\F_N213016.jpg,Animall,FarBody,4,27,NonAnimall,3,0.967930799990427,1.08271409996087,0
C:\psychtool\AnimalDB\AnimalDB\NonAnimall\MediumBody\Mdn_land82.jpg,NonAnimall,MediumBody,4,28,NonAnimall,5,1.14998680003919,1.26558609999483,1
C:\psychtool\AnimalDB\AnimalDB\NonAnimall\FarBody\Fdn_land290.jpg,NonAnimall,FarBody,4,29,NonAnimall,5,1.05045450001489,1.16515529999742,1
C:\psychtool\AnimalDB\AnimalDB\NonAnimall\Head\Hdn_objn125.jpg,NonAnimall,Head,4,30,NonAnimall,3,1.07529020000948,1.18990970001323,1
C:\psychtool\AnimalDB\AnimalDB\NonAnimall\CloseBody\Bdn_text6.jpg,NonAnimall,CloseBody,4,31,NonAnimall,5,1.04142199998023,1.1567187999608,1
C:\psychtool\AnimalDB\AnimalDB\NonAnimall\Head\Hdn_objn29.jpg,NonAnimall,Head,4,32,Animall,3,0.990366000041831,1.10526709997794,0
C:\psychtool\AnimalDB\AnimalDB\NonAnimall\Head\Hdn_objn45.jpg,NonAnimall,Head,4,33,NonAnimall,4,1.12041919998592,1.2361376999761,1
C:\psychtool\AnimalDB\AnimalDB\Animall\FarBody\F_N824093.jpg,Animall,FarBody,4,34,Animall,5,0.861743899993598,0.976505300030112,1
C:\psychtool\AnimalDB\AnimalDB\NonAnimall\FarBody\Fdn_bea7.jpg,NonAnimall,FarBody,4,35,Animall,5,0.698368600045796,0.813169199973345,0
C:\psychtool\AnimalDB\AnimalDB\Animall\CloseBody\B_N827019.jpg,Animall,CloseBody,4,36,Animall,5,0.748724400007632,0.863493400043808,1
C:\psychtool\AnimalDB\AnimalDB\Animall\Head\H_N253061.jpg,Animall,Head,4,37,Animall,5,0.671478900010698,0.786707599996589,1
C:\psychtool\AnimalDB\AnimalDB\Animall\FarBody\F_N314040.jpg,Animall,FarBody,4,38,Animall,5,1.31841349997558,1.43307670002105,1
C:\psychtool\AnimalDB\AnimalDB\Animall\Head\H_N707021.jpg,Animall,Head,4,39,Animall,5,0.97834310005419,1.09309239999857,1
C:\psychtool\AnimalDB\AnimalDB\Animall\MediumBody\M_N109023.jpg,Animall,MediumBody,4,40,Animall,5,0.746126700018067,0.861300899996422,1
C:\psychtool\AnimalDB\AnimalDB\NonAnimall\MediumBody\Mdn_text38.jpg,NonAnimall,MediumBody,4,41,NonAnimall,4,1.43207149999216,1.54675949999364,1
C:\psychtool\AnimalDB\AnimalDB\Animall\FarBody\F_N824056.jpg,Animall,FarBody,4,42,Animall,5,0.633284999988973,0.747971099975985,1
C:\psychtool\AnimalDB\AnimalDB\NonAnimall\FarBody\Fdn_sclos4.jpg,NonAnimall,FarBody,4,43,NonAnimall,4,1.46864129998721,1.58353190001799,1
C:\psychtool\AnimalDB\AnimalDB\Animall\Head\H_N824009.jpg,Animall,Head,4,44,Animall,5,0.748520500026643,0.863226399989799,1
C:\psychtool\AnimalDB\AnimalDB\NonAnimall\CloseBody\Bdn_text7.jpg,NonAnimall,CloseBody,4,45,NonAnimall,3,0.983119299984537,1.09789430000819,1
C:\psychtool\AnimalDB\AnimalDB\NonAnimall\CloseBody\Bdn_natu393.jpg,NonAnimall,CloseBody,4,46,NonAnimall,4,0.90090720000444,1.01585860003252,1
C:\psychtool\AnimalDB\AnimalDB\Animall\Head\H_N123040.jpg,Animall,Head,4,47,Animall,5,0.672819299972616,0.787662299990188,1
C:\psychtool\AnimalDB\AnimalDB\NonAnimall\FarBody\Fda_urb794.jpg,NonAnimall,FarBody,4,48,NonAnimall,5,0.955667500034906,1.07040319999214,1
C:\psychtool\AnimalDB\AnimalDB\Animall\FarBody\F_N314014.jpg,Animall,FarBody,4,49,Animall,5,0.916845899948385,1.03161810000893,1
C:\psychtool\AnimalDB\AnimalDB\Animall\FarBody\F_N825003.jpg,Animall,FarBody,4,50,Animall,2,1.14124399999855,1.25647720001871,1
C:\psychtool\AnimalDB\AnimalDB\Animall\MediumBody\M_N197092.jpg,Animall,MediumBody,4,51,Animall,5,0.883913700003177,0.99867489997996,1
C:\psychtool\AnimalDB\AnimalDB\NonAnimall\Head\Hda_room431.jpg,NonAnimall,Head,4,52,NonAnimall,5,1.09478360001231,1.20953950000694,1
C:\psychtool\AnimalDB\AnimalDB\Animall\MediumBody\M_N314099.jpg,Animall,MediumBody,4,53,Animall,5,0.779114700038917,0.893987099989317,1
C:\psychtool\AnimalDB\AnimalDB\NonAnimall\MediumBody\Mdn_N228075.jpg,NonAnimall,MediumBody,4,54,NonAnimall,5,1.16551069996785,1.28024399996502,1
C:\psychtool\AnimalDB\AnimalDB\NonAnimall\MediumBody\Mdn_N295019.jpg,NonAnimall,MediumBody,4,55,Animall,3,1.87320089997957,1.9884920999757,0
C:\psychtool\AnimalDB\AnimalDB\Animall\FarBody\F_N676061.jpg,Animall,FarBody,4,56,Animall,5,0.868104799999855,0.982702600012999,1
C:\psychtool\AnimalDB\AnimalDB\NonAnimall\CloseBody\Bdn_text64.jpg,NonAnimall,CloseBody,4,57,Animall,2,1.62606989999767,1.7409314000397,0
C:\psychtool\AnimalDB\AnimalDB\NonAnimall\MediumBody\Mdn_N344026.jpg,NonAnimall,MediumBody,4,58,NonAnimall,4,1.38439120003022,1.49916569999186,1
C:\psychtool\AnimalDB\AnimalDB\NonAnimall\FarBody\Fdn_open6.jpg,NonAnimall,FarBody,4,59,NonAnimall,4,1.04688860004535,1.16175250004744,1
C:\psychtool\AnimalDB\AnimalDB\NonAnimall\FarBody\Fdn_nat480.jpg,NonAnimall,FarBody,4,60,Animall,5,0.924493899976369,1.03926180000417,0
C:\psychtool\AnimalDB\AnimalDB\Animall\CloseBody\B_N427024.jpg,Animall,CloseBody,4,61,Animall,5,0.983237799955532,1.09812030004105,1
C:\psychtool\AnimalDB\AnimalDB\NonAnimall\Head\Hda_room421.jpg,NonAnimall,Head,4,62,Animall,4,1.91396989999339,2.02875530003803,0
C:\psychtool\AnimalDB\AnimalDB\NonAnimall\Head\Hdn_objn115.jpg,NonAnimall,Head,4,63,Animall,5,1.14266080001835,1.25752639997518,0
C:\psychtool\AnimalDB\AnimalDB\Animall\MediumBody\M_N123033.jpg,Animall,MediumBody,4,64,Animall,5,0.85986609995598,0.974903800000902,1
C:\psychtool\AnimalDB\AnimalDB\NonAnimall\FarBody\Fdn_land13.jpg,NonAnimall,FarBody,4,65,Animall,5,0.468025199952535,0.582728999957908,0
C:\psychtool\AnimalDB\AnimalDB\NonAnimall\CloseBody\Bdn_text22.jpg,NonAnimall,CloseBody,4,66,Animall,5,0.434978600009345,0.550169099995401,0
C:\psychtool\AnimalDB\AnimalDB\NonAnimall\MediumBody\Mdn_for83.jpg,NonAnimall,MediumBody,4,67,NonAnimall,5,1.10287420003442,1.21779520000564,1
C:\psychtool\AnimalDB\AnimalDB\NonAnimall\CloseBody\Bdn_for96.jpg,NonAnimall,CloseBody,4,68,NonAnimall,3,1.10683920001611,1.22167360002641,1
C:\psychtool\AnimalDB\AnimalDB\Animall\MediumBody\M_N173025.jpg,Animall,MediumBody,4,69,Animall,5,0.73336010001367,0.848274799995124,1
C:\psychtool\AnimalDB\AnimalDB\NonAnimall\CloseBody\Bdn_nat306.jpg,NonAnimall,CloseBody,4,70,Animall,5,0.685492299962789,0.801248100004159,0
C:\psychtool\AnimalDB\AnimalDB\NonAnimall\FarBody\Fdn_nat168.jpg,NonAnimall,FarBody,4,71,NonAnimall,4,1.01777409994975,1.13362660002895,1
C:\psychtool\AnimalDB\AnimalDB\Animall\CloseBody\B_N826057.jpg,Animall,CloseBody,4,72,Animall,5,0.651053600013256,0.765713699976914,1
C:\psychtool\AnimalDB\AnimalDB\NonAnimall\FarBody\Fdn_nat1215.jpg,NonAnimall,FarBody,4,73,Animall,5,0.893393300008029,1.00832879997324,0
C:\psychtool\AnimalDB\AnimalDB\NonAnimall\FarBody\Fdn_land14.jpg,NonAnimall,FarBody,4,74,NonAnimall,5,0.925395799975377,1.04016829998,1
C:\psychtool\AnimalDB\AnimalDB\NonAnimall\MediumBody\Mdn_text45.jpg,NonAnimall,MediumBody,4,75,NonAnimall,3,1.62524409999605,1.74016039998969,1
C:\psychtool\AnimalDB\AnimalDB\Animall\Head\H_N247037.jpg,Animall,Head,4,76,Animall,5,0.710439899994526,0.825149499985855,1
C:\psychtool\AnimalDB\AnimalDB\NonAnimall\FarBody\Fdn_bea2.jpg,NonAnimall,FarBody,4,77,NonAnimall,5,1.06803000002401,1.1829665999976,1
C:\psychtool\AnimalDB\AnimalDB\NonAnimall\CloseBody\Bdn_text27.jpg,NonAnimall,CloseBody,4,78,NonAnimall,4,1.62609789997805,1.74089459999232,1
C:\psychtool\AnimalDB\AnimalDB\NonAnimall\MediumBody\Mdn_nat1196.jpg,NonAnimall,MediumBody,4,79,NonAnimall,4,1.32458709995262,1.43946020002477,1
C:\psychtool\AnimalDB\AnimalDB\NonAnimall\FarBody\Fdn_land253.jpg,NonAnimall,FarBody,4,80,NonAnimall,2,1.38121570000658,1.49651219998486,1
C:\psychtool\AnimalDB\AnimalDB\NonAnimall\CloseBody\Bdn_nat1157.jpg,NonAnimall,CloseBody,4,81,Animall,5,0.709382700035349,0.824082699953578,0
C:\psychtool\AnimalDB\AnimalDB\Animall\MediumBody\M_N109000.jpg,Animall,MediumBody,4,82,Animall,5,0.359971500001848,0.474913300015032,1
C:\psychtool\AnimalDB\AnimalDB\NonAnimall\CloseBody\Bdn_natu977.jpg,NonAnimall,CloseBody,4,83,Animall,5,0.430386299965903,0.546154899988323,0
C:\psychtool\AnimalDB\AnimalDB\NonAnimall\Head\Hdn_objn60.jpg,NonAnimall,Head,4,84,Animall,5,0.573286700004246,0.68809529999271,0
C:\psychtool\AnimalDB\AnimalDB\NonAnimall\Head\Hdn_N127048.jpg,NonAnimall,Head,4,85,NonAnimall,4,1.0792470999877,1.19407929998124,1
C:\psychtool\AnimalDB\AnimalDB\NonAnimall\MediumBody\Mda_archi37.jpg,NonAnimall,MediumBody,4,86,NonAnimall,5,0.807651599985547,0.92239929997595,1
C:\psychtool\AnimalDB\AnimalDB\Animall\Head\H_N816021.jpg,Animall,Head,4,87,Animall,5,0.882393900013994,0.997146699985024,1
C:\psychtool\AnimalDB\AnimalDB\Animall\MediumBody\M_N136059.jpg,Animall,MediumBody,4,88,Animall,5,1.35418109997408,1.47051549999742,1
C:\psychtool\AnimalDB\AnimalDB\NonAnimall\CloseBody\Bdn_nat1006.jpg,NonAnimall,CloseBody,4,89,Animall,2,1.15973379998468,1.27457820001291,0
C:\psychtool\AnimalDB\AnimalDB\NonAnimall\Head\Hdn_objn27.jpg,NonAnimall,Head,4,90,NonAnimall,5,0.999688900017645,1.11440269998275,1
C:\psychtool\AnimalDB\AnimalDB\Animall\CloseBody\B_N815057.jpg,Animall,CloseBody,4,91,Animall,5,0.707315400009975,0.822100200050045,1
C:\psychtool\AnimalDB\AnimalDB\NonAnimall\CloseBody\Bdn_nat267.jpg,NonAnimall,CloseBody,4,92,NonAnimall,5,1.19315339997411,1.30792920000385,1
C:\psychtool\AnimalDB\AnimalDB\NonAnimall\MediumBody\Mdn_N328089.jpg,NonAnimall,MediumBody,4,93,NonAnimall,5,1.10654319997411,1.22129989997484,1
C:\psychtool\AnimalDB\AnimalDB\Animall\FarBody\F_N408052.jpg,Animall,FarBody,4,94,Animall,4,1.33420610002941,1.44888660003198,1
C:\psychtool\AnimalDB\AnimalDB\NonAnimall\Head\Hdn_N115088.jpg,NonAnimall,Head,4,95,NonAnimall,5,0.968354199954774,1.08299929997884,1
C:\psychtool\AnimalDB\AnimalDB\NonAnimall\FarBody\Fdn_land56.jpg,NonAnimall,FarBody,4,96,NonAnimall,3,1.49994199996581,1.61477009998634,1
C:\psychtool\AnimalDB\AnimalDB\Animall\MediumBody\M_N314057.jpg,Animall,MediumBody,4,97,Animall,5,0.787503500003368,0.902788000006694,1
C:\psychtool\AnimalDB\AnimalDB\Animall\Head\H_N415079.jpg,Animall,Head,4,98,Animall,5,0.640485199983232,0.755230600014329,1
C:\psychtool\AnimalDB\AnimalDB\Animall\CloseBody\B_N816066.jpg,Animall,CloseBody,4,99,NonAnimall,5,1.00797500001499,1.12277839996386,0
C:\psychtool\AnimalDB\AnimalDB\Animall\Head\H_N816047.jpg,Animall,Head,4,100,Animall,5,0.72524759999942,0.840074800013099,1
C:\psychtool\AnimalDB\AnimalDB\NonAnimall\Head\Hdn_objn80.jpg,NonAnimall,Head,4,101,NonAnimall,5,0.87919350003358,0.993904300034046,1
C:\psychtool\AnimalDB\AnimalDB\Animall\Head\H_N134022.jpg,Animall,Head,4,102,Animall,5,0.741994099982549,0.858226899988949,1
C:\psychtool\AnimalDB\AnimalDB\Animall\FarBody\F_N541063.jpg,Animall,FarBody,4,103,Animall,5,0.390835300029721,0.505635699955747,1
C:\psychtool\AnimalDB\AnimalDB\Animall\FarBody\F_N828023.jpg,Animall,FarBody,4,104,Animall,3,1.17635980003979,1.29117580002639,1
C:\psychtool\AnimalDB\AnimalDB\Animall\Head\H_N247090.jpg,Animall,Head,4,105,Animall,5,0.676573599979747,0.791454799997155,1
C:\psychtool\AnimalDB\AnimalDB\NonAnimall\MediumBody\Mdn_land743.jpg,NonAnimall,MediumBody,4,106,NonAnimall,3,1.19736979994923,1.31225969997467,1
C:\psychtool\AnimalDB\AnimalDB\Animall\MediumBody\M_N130078.jpg,Animall,MediumBody,4,107,NonAnimall,4,1.07913309999276,1.19403149996651,0
C:\psychtool\AnimalDB\AnimalDB\Animall\MediumBody\M_N289080.jpg,Animall,MediumBody,4,108,Animall,5,0.675452499999665,0.790242599963676,1
C:\psychtool\AnimalDB\AnimalDB\NonAnimall\Head\Hdn_N115056.jpg,NonAnimall,Head,4,109,NonAnimall,5,1.08380719996057,1.19853809999768,1
C:\psychtool\AnimalDB\AnimalDB\Animall\Head\H_N136052.jpg,Animall,Head,4,110,Animall,5,0.90211729996372,1.01820059999591,1
C:\psychtool\AnimalDB\AnimalDB\NonAnimall\CloseBody\Bdn_land376.jpg,NonAnimall,CloseBody,4,111,Animall,4,1.2592786999885,1.37424480001209,0
C:\psychtool\AnimalDB\AnimalDB\NonAnimall\FarBody\Fdn_land386.jpg,NonAnimall,FarBody,4,112,Animall,5,0.742293099989183,0.857196099997964,0
C:\psychtool\AnimalDB\AnimalDB\NonAnimall\CloseBody\Bdn_text83.jpg,NonAnimall,CloseBody,4,113,Animall,5,0.595427199965343,0.710260800027754,0
C:\psychtool\AnimalDB\AnimalDB\Animall\CloseBody\B_N427054.jpg,Animall,CloseBody,4,114,Animall,5,0.440075899998192,0.554915999993682,1
C:\psychtool\AnimalDB\AnimalDB\Animall\Head\H_N415081.jpg,Animall,Head,4,115,Animall,5,0.401415000029374,0.517974499962293,1
C:\psychtool\AnimalDB\AnimalDB\NonAnimall\CloseBody\Bdn_land859.jpg,NonAnimall,CloseBody,4,116,Animall,5,0.425431599956937,0.540314999991097,0
C:\psychtool\AnimalDB\AnimalDB\NonAnimall\Head\Hdn_objn122.jpg,NonAnimall,Head,4,117,Animall,5,0.498069999972358,0.613005699997302,0
C:\psychtool\AnimalDB\AnimalDB\Animall\FarBody\F_N815052.jpg,Animall,FarBody,4,118,Animall,5,0.458556500030681,0.573412600031588,1
C:\psychtool\AnimalDB\AnimalDB\NonAnimall\Head\Hdn_natu370.jpg,NonAnimall,Head,4,119,NonAnimall,5,0.926100400043651,1.04095950000919,1
C:\psychtool\AnimalDB\AnimalDB\Animall\MediumBody\M_N112018.jpg,Animall,MediumBody,4,120,Animall,5,0.96746150002582,1.08339769998565,1
C:\psychtool\AnimalDB\AnimalDB\NonAnimall\FarBody\Fdn_nat498.jpg,NonAnimall,FarBody,5,1,NonAnimall,4,2.34575569996377,2.52820129995234,1
C:\psychtool\AnimalDB\AnimalDB\Animall\MediumBody\M_N574077.jpg,Animall,MediumBody,5,2,Animall,5,0.744096900045406,0.855737599951681,1
C:\psychtool\AnimalDB\AnimalDB\NonAnimall\Head\Hdn_N152028.jpg,NonAnimall,Head,5,3,NonAnimall,5,0.943739400012419,1.05495330004487,1
C:\psychtool\AnimalDB\AnimalDB\NonAnimall\Head\Hdn_objn28.jpg,NonAnimall,Head,5,4,NonAnimall,5,1.12447190005332,1.23622029996477,1
C:\psychtool\AnimalDB\AnimalDB\NonAnimall\MediumBody\Mdn_for35.jpg,NonAnimall,MediumBody,5,5,Animall,3,1.75492680002935,1.86941049998859,0
C:\psychtool\AnimalDB\AnimalDB\Animall\CloseBody\B_N815065.jpg,Animall,CloseBody,5,6,Animall,5,0.665479599963874,0.777145600004587,1
C:\psychtool\AnimalDB\AnimalDB\Animall\MediumBody\M_N253027.jpg,Animall,MediumBody,5,7,Animall,5,0.366905600007158,0.478256900038105,1
C:\psychtool\AnimalDB\AnimalDB\Animall\Head\H_N825030.jpg,Animall,Head,5,8,Animall,5,0.393128199968487,0.503990400000475,1
C:\psychtool\AnimalDB\AnimalDB\Animall\MediumBody\M_N289050.jpg,Animall,MediumBody,5,9,Animall,5,0.4199669000227,0.532342999998946,1
C:\psychtool\AnimalDB\AnimalDB\Animall\FarBody\F_N168008.jpg,Animall,FarBody,5,10,NonAnimall,3,1.55285359994741,1.66741319996072,0
C:\psychtool\AnimalDB\AnimalDB\NonAnimall\FarBody\Fdn_text69.jpg,NonAnimall,FarBody,5,11,NonAnimall,4,1.14458869997179,1.25548350001918,1
C:\psychtool\AnimalDB\AnimalDB\Animall\MediumBody\M_N815038.jpg,Animall,MediumBody,5,12,NonAnimall,4,1.21016999997664,1.3210103000165,0
C:\psychtool\AnimalDB\AnimalDB\Animall\FarBody\F_N828047.jpg,Animall,FarBody,5,13,Animall,5,0.597751999972388,0.708511099976022,1
C:\psychtool\AnimalDB\AnimalDB\Animall\Head\H_N458006.jpg,Animall,Head,5,14,Animall,5,0.516877999994904,0.628444999980275,1
C:\psychtool\AnimalDB\AnimalDB\NonAnimall\MediumBody\Mda_urb982.jpg,NonAnimall,MediumBody,5,15,Animall,2,1.31968870002311,1.43437420000555,0
C:\psychtool\AnimalDB\AnimalDB\Animall\FarBody\F_N815014.jpg,Animall,FarBody,5,16,Animall,5,0.683385899988934,0.794103000022005,1
C:\psychtool\AnimalDB\AnimalDB\Animall\MediumBody\M_N253091.jpg,Animall,MediumBody,5,17,Animall,5,0.811292600003071,0.922591800044756,1
C:\psychtool\AnimalDB\AnimalDB\Animall\MediumBody\M_N112057.jpg,Animall,MediumBody,5,18,Animall,5,0.592747699993197,0.70343320001848,1
C:\psychtool\AnimalDB\AnimalDB\NonAnimall\CloseBody\Bdn_N127047.jpg,NonAnimall,CloseBody,5,19,NonAnimall,5,1.76796490000561,1.36206719995243,1
C:\psychtool\AnimalDB\AnimalDB\Animall\CloseBody\B_N815027.jpg,Animall,CloseBody,5,20,Animall,5,0.796411900024395,0.908070200006478,1
C:\psychtool\AnimalDB\AnimalDB\Animall\CloseBody\B_N314029.jpg,Animall,CloseBody,5,21,Animall,5,1.05389389995253,1.16769809997641,1
C:\psychtool\AnimalDB\AnimalDB\NonAnimall\Head\Hdn_objn112.jpg,NonAnimall,Head,5,22,NonAnimall,5,1.26827089994913,1.37979929998983,1
C:\psychtool\AnimalDB\AnimalDB\Animall\Head\H_N458059.jpg,Animall,Head,5,23,Animall,5,0.800236600043718,0.911083100014366,1
C:\psychtool\AnimalDB\AnimalDB\Animall\MediumBody\M_N136096.jpg,Animall,MediumBody,5,24,Animall,5,0.646612100012135,0.757379700022284,1
C:\psychtool\AnimalDB\AnimalDB\Animall\Head\H_N253019.jpg,Animall,Head,5,25,Animall,5,0.900777400005609,1.0120511999703,1
C:\psychtool\AnimalDB\AnimalDB\Animall\MediumBody\M_N136034.jpg,Animall,MediumBody,5,26,Animall,5,0.363529600028414,0.475452800048515,1
C:\psychtool\AnimalDB\AnimalDB\NonAnimall\MediumBody\Mdn_natu961.jpg,NonAnimall,MediumBody,5,27,Animall,5,0.40352150000399,0.516548199986573,0
C:\psychtool\AnimalDB\AnimalDB\NonAnimall\FarBody\Fdn_nat1004.jpg,NonAnimall,FarBody,5,28,NonAnimall,5,0.862046999973245,0.974297500040848,1
C:\psychtool\AnimalDB\AnimalDB\NonAnimall\MediumBody\Mdn_nat954.jpg,NonAnimall,MediumBody,5,29,NonAnimall,2,1.73361210001167,1.84465230000205,1
C:\psychtool\AnimalDB\AnimalDB\NonAnimall\CloseBody\Bdn_land753.jpg,NonAnimall,CloseBody,5,30,NonAnimall,5,1.16206080000848,1.27431850001449,1
C:\psychtool\AnimalDB\AnimalDB\Animall\Head\H_N247005.jpg,Animall,Head,5,31,Animall,5,0.769684800005052,0.884194399986882,1
C:\psychtool\AnimalDB\AnimalDB\NonAnimall\FarBody\Fdn_land83.jpg,NonAnimall,FarBody,5,32,NonAnimall,4,1.13641869998537,1.24936359998537,1
C:\psychtool\AnimalDB\AnimalDB\NonAnimall\FarBody\Fdn_sharp22.jpg,NonAnimall,FarBody,5,33,NonAnimall,5,1.26061529997969,1.37195130001055,1
C:\psychtool\AnimalDB\AnimalDB\Animall\CloseBody\B_N771063.jpg,Animall,CloseBody,5,34,Animall,5,0.619864699954633,0.731779099965934,1
C:\psychtool\AnimalDB\AnimalDB\Animall\CloseBody\B_N826070.jpg,Animall,CloseBody,5,35,Animall,5,0.755078800022602,0.867014000017662,1
C:\psychtool\AnimalDB\AnimalDB\Animall\FarBody\F_N816019.jpg,Animall,FarBody,5,36,Animall,5,0.679074699990451,0.790642199979629,1
C:\psychtool\AnimalDB\AnimalDB\NonAnimall\MediumBody\Mdn_natu869.jpg,NonAnimall,MediumBody,5,37,NonAnimall,5,0.928710900014266,1.04044820001582,1
C:\psychtool\AnimalDB\AnimalDB\NonAnimall\FarBody\Fdn_open18.jpg,NonAnimall,FarBody,5,38,NonAnimall,5,0.904541000025347,1.01760099997045,1
C:\psychtool\AnimalDB\AnimalDB\Animall\CloseBody\B_N347031.jpg,Animall,CloseBody,5,39,Animall,5,0.612915500008967,0.724399500002619,1
C:\psychtool\AnimalDB\AnimalDB\Animall\CloseBody\B_N826081.jpg,Animall,CloseBody,5,40,Animall,5,0.758541100018192,0.870182499988005,1
C:\psychtool\AnimalDB\AnimalDB\NonAnimall\CloseBody\Bdn_text20.jpg,NonAnimall,CloseBody,5,41,Animall,5,1.00170210003853,1.11274519999279,0
C:\psychtool\AnimalDB\AnimalDB\NonAnimall\MediumBody\Mdn_natu425.jpg,NonAnimall,MediumBody,5,42,NonAnimall,5,1.03585949999979,1.14757989998907,1
C:\psychtool\AnimalDB\AnimalDB\Animall\MediumBody\M_N314056.jpg,Animall,MediumBody,5,43,Animall,5,0.686423000006471,0.798037000000477,1
C:\psychtool\AnimalDB\AnimalDB\NonAnimall\CloseBody\Bdn_nat846.jpg,NonAnimall,CloseBody,5,44,NonAnimall,5,1.01831389998551,1.12977309996495,1
C:\psychtool\AnimalDB\AnimalDB\NonAnimall\MediumBody\Mdn_N347002.jpg,NonAnimall,MediumBody,5,45,NonAnimall,5,0.983428900013678,1.09487799997441,1
C:\psychtool\AnimalDB\AnimalDB\NonAnimall\MediumBody\Mdn_N228078.jpg,NonAnimall,MediumBody,5,46,NonAnimall,5,0.937439100001939,1.05014379997738,1
C:\psychtool\AnimalDB\AnimalDB\NonAnimall\MediumBody\Mdn_N344067.jpg,NonAnimall,MediumBody,5,47,NonAnimall,2,1.21976490004454,1.33524320001015,1
C:\psychtool\AnimalDB\AnimalDB\NonAnimall\MediumBody\Mdn_land760.jpg,NonAnimall,MediumBody,5,48,NonAnimall,4,1.12055529997451,1.23526569997193,1
C:\psychtool\AnimalDB\AnimalDB\NonAnimall\CloseBody\Bdn_text4.jpg,NonAnimall,CloseBody,5,49,NonAnimall,5,1.34687829995528,1.45852990000276,1
C:\psychtool\AnimalDB\AnimalDB\Animall\CloseBody\B_N825089.jpg,Animall,CloseBody,5,50,Animall,5,0.808003299986012,0.919804400007706,1
C:\psychtool\AnimalDB\AnimalDB\NonAnimall\FarBody\Fdn_bea33.jpg,NonAnimall,FarBody,5,51,NonAnimall,5,0.984137899999041,1.09594329999527,1
C:\psychtool\AnimalDB\AnimalDB\Animall\MediumBody\M_N130070.jpg,Animall,MediumBody,5,52,Animall,5,0.61875169997802,0.730973099998664,1
C:\psychtool\AnimalDB\AnimalDB\NonAnimall\MediumBody\Mdn_nat763.jpg,NonAnimall,MediumBody,5,53,Animall,2,1.2862089999835,1.40124730003299,0
C:\psychtool\AnimalDB\AnimalDB\NonAnimall\Head\Hdn_objn221.jpg,NonAnimall,Head,5,54,Animall,5,0.837131599953864,0.950249999994412,0
C:\psychtool\AnimalDB\AnimalDB\Animall\CloseBody\B_N209023.jpg,Animall,CloseBody,5,55,Animall,5,0.736633200023789,0.850792899960652,1
C:\psychtool\AnimalDB\AnimalDB\NonAnimall\FarBody\Fdn_natu919.jpg,NonAnimall,FarBody,5,56,Animall,3,1.05332549999002,1.16641179996077,0
C:\psychtool\AnimalDB\AnimalDB\Animall\FarBody\F_N408063.jpg,Animall,FarBody,5,57,Animall,5,0.642323700012639,0.753789600043092,1
C:\psychtool\AnimalDB\AnimalDB\NonAnimall\CloseBody\Bdn_land375.jpg,NonAnimall,CloseBody,5,58,NonAnimall,4,1.09431380004389,1.20614169997862,1
C:\psychtool\AnimalDB\AnimalDB\Animall\Head\H_N826076.jpg,Animall,Head,5,59,Animall,5,0.715963499969803,0.82733780000126,1
C:\psychtool\AnimalDB\AnimalDB\Animall\MediumBody\M_N112050.jpg,Animall,MediumBody,5,60,Animall,5,0.681107200041879,0.792636000027414,1
C:\psychtool\AnimalDB\AnimalDB\NonAnimall\FarBody\Fdn_bea25.jpg,NonAnimall,FarBody,5,61,NonAnimall,2,1.81087630003458,1.92267200001515,1
C:\psychtool\AnimalDB\AnimalDB\NonAnimall\FarBody\Fdn_natu408.jpg,NonAnimall,FarBody,5,62,NonAnimall,4,1.26683739997679,1.37848700000905,1
C:\psychtool\AnimalDB\AnimalDB\NonAnimall\MediumBody\Mdn_N344039.jpg,NonAnimall,MediumBody,5,63,NonAnimall,3,1.23228699999163,1.34388020000188,1
C:\psychtool\AnimalDB\AnimalDB\NonAnimall\Head\Hdn_objn217.jpg,NonAnimall,Head,5,64,NonAnimall,4,1.06835490005324,1.18012360000284,1
C:\psychtool\AnimalDB\AnimalDB\Animall\Head\H_N247008.jpg,Animall,Head,5,65,Animall,5,1.31795100000454,0.812772899982519,1
C:\psychtool\AnimalDB\AnimalDB\Animall\Head\H_N707064.jpg,Animall,Head,5,66,Animall,5,0.620489599998109,0.733408600033727,1
C:\psychtool\AnimalDB\AnimalDB\NonAnimall\FarBody\Fdn_land12.jpg,NonAnimall,FarBody,5,67,NonAnimall,5,1.01527960004751,1.12627700000303,1
C:\psychtool\AnimalDB\AnimalDB\Animall\Head\H_N802027.jpg,Animall,Head,5,68,Animall,5,0.721291900030337,0.836968199990224,1
C:\psychtool\AnimalDB\AnimalDB\Animall\MediumBody\M_N253003.jpg,Animall,MediumBody,5,69,Animall,5,0.670783200010192,0.782836199970916,1
C:\psychtool\AnimalDB\AnimalDB\NonAnimall\CloseBody\Bdn_nat463.jpg,NonAnimall,CloseBody,5,70,NonAnimall,3,1.16174829995725,1.27350910002133,1
C:\psychtool\AnimalDB\AnimalDB\Animall\Head\H_N130033.jpg,Animall,Head,5,71,Animall,5,0.886998300033156,0.999082700000145,1
C:\psychtool\AnimalDB\AnimalDB\Animall\CloseBody\B_N289052.jpg,Animall,CloseBody,5,72,Animall,5,0.552318800007924,0.66367540002102,1
C:\psychtool\AnimalDB\AnimalDB\Animall\FarBody\F_N408024.jpg,Animall,FarBody,5,73,Animall,5,0.429030400002375,0.540851300000213,1
C:\psychtool\AnimalDB\AnimalDB\NonAnimall\MediumBody\Mdn_for68.jpg,NonAnimall,MediumBody,5,74,NonAnimall,3,1.44179699994856,1.5534142999677,1
C:\psychtool\AnimalDB\AnimalDB\NonAnimall\Head\Hdn_objn23.jpg,NonAnimall,Head,5,75,NonAnimall,5,1.51752149994718,1.62894999998389,1
C:\psychtool\AnimalDB\AnimalDB\Animall\MediumBody\M_N326090.jpg,Animall,MediumBody,5,76,Animall,5,0.619459999958053,0.732528699969407,1
C:\psychtool\AnimalDB\AnimalDB\NonAnimall\CloseBody\Bdn_N44065.jpg,NonAnimall,CloseBody,5,77,NonAnimall,4,0.967071499966551,1.07863860001089,1
C:\psychtool\AnimalDB\AnimalDB\NonAnimall\Head\Hdn_objn34.jpg,NonAnimall,Head,5,78,NonAnimall,4,1.09460630000103,1.20679289998952,1
C:\psychtool\AnimalDB\AnimalDB\Animall\CloseBody\B_N268093.jpg,Animall,CloseBody,5,79,Animall,5,0.682374500029255,0.794146900007036,1
C:\psychtool\AnimalDB\AnimalDB\NonAnimall\CloseBody\Bdn_objn102.jpg,NonAnimall,CloseBody,5,80,Animall,5,0.915547900018282,1.02725269994698,0
C:\psychtool\AnimalDB\AnimalDB\Animall\FarBody\F_N314082.jpg,Animall,FarBody,5,81,Animall,5,1.19580829999177,1.3081256999867,1
C:\psychtool\AnimalDB\AnimalDB\Animall\FarBody\F_N286096.jpg,Animall,FarBody,5,82,Animall,3,1.33521019999171,1.44690040004207,1
C:\psychtool\AnimalDB\AnimalDB\NonAnimall\MediumBody\Mdn_natu35.jpg,NonAnimall,MediumBody,5,83,Animall,4,0.986094899999443,1.10183810000308,0
C:\psychtool\AnimalDB\AnimalDB\NonAnimall\FarBody\Fdn_open2.jpg,NonAnimall,FarBody,5,84,Animall,2,1.47000279999338,1.58154829998966,0
C:\psychtool\AnimalDB\AnimalDB\NonAnimall\MediumBody\Mdn_natu412.jpg,NonAnimall,MediumBody,5,85,NonAnimall,3,1.28417160001118,1.39580920001026,1
C:\psychtool\AnimalDB\AnimalDB\NonAnimall\CloseBody\Bdn_objn152.jpg,NonAnimall,CloseBody,5,86,Animall,5,0.81783119996544,0.92937329999404,0
C:\psychtool\AnimalDB\AnimalDB\NonAnimall\FarBody\Fdn_natu79.jpg,NonAnimall,FarBody,5,87,NonAnimall,4,1.72002589999465,1.83441810001386,1
C:\psychtool\AnimalDB\AnimalDB\NonAnimall\FarBody\Fdn_nat10.jpg,NonAnimall,FarBody,5,88,Animall,5,0.731110699998681,0.842622399970423,0
C:\psychtool\AnimalDB\AnimalDB\NonAnimall\MediumBody\Mdn_N328009.jpg,NonAnimall,MediumBody,5,89,NonAnimall,5,1.60015329997987,1.71221399999922,1
C:\psychtool\AnimalDB\AnimalDB\NonAnimall\CloseBody\Bdn_land872.jpg,NonAnimall,CloseBody,5,90,NonAnimall,5,1.61987540003611,1.73437319998629,1
C:\psychtool\AnimalDB\AnimalDB\Animall\MediumBody\M_N289096.jpg,Animall,MediumBody,5,91,Animall,5,0.72966270003235,0.841181800002232,1
C:\psychtool\AnimalDB\AnimalDB\Animall\FarBody\F_N816050.jpg,Animall,FarBody,5,92,Animall,5,0.984489700000267,1.09618480002973,1
C:\psychtool\AnimalDB\AnimalDB\Animall\Head\H_N247023.jpg,Animall,Head,5,93,Animall,5,0.48575069999788,0.598115600005258,1
C:\psychtool\AnimalDB\AnimalDB\NonAnimall\CloseBody\Bdn_for23.jpg,NonAnimall,CloseBody,5,94,NonAnimall,5,1.14949199999683,1.26117840001825,1
C:\psychtool\AnimalDB\AnimalDB\NonAnimall\Head\Hdn_objn26.jpg,NonAnimall,Head,5,95,NonAnimall,5,1.19962270004908,1.31083450000733,1
C:\psychtool\AnimalDB\AnimalDB\Animall\Head\H_N427004.jpg,Animall,Head,5,96,Animall,5,0.81988550000824,0.932636000041384,1
C:\psychtool\AnimalDB\AnimalDB\NonAnimall\MediumBody\Mdn_nat1247.jpg,NonAnimall,MediumBody,5,97,Animall,5,0.852034899988212,0.963890700018965,0
C:\psychtool\AnimalDB\AnimalDB\Animall\Head\H_N816077.jpg,Animall,Head,5,98,Animall,5,0.520146499969997,0.634764899965376,1
C:\psychtool\AnimalDB\AnimalDB\NonAnimall\MediumBody\Mdn_N347014.jpg,NonAnimall,MediumBody,5,99,NonAnimall,2,1.38630730001023,1.49817609996535,1
C:\psychtool\AnimalDB\AnimalDB\Animall\MediumBody\M_N109034.jpg,Animall,MediumBody,5,100,NonAnimall,3,1.3532476000255,1.46527670003707,0
C:\psychtool\AnimalDB\AnimalDB\NonAnimall\MediumBody\Mdn_land313.jpg,NonAnimall,MediumBody,5,101,Animall,2,1.98739620001288,2.09861710004043,0
C:\psychtool\AnimalDB\AnimalDB\NonAnimall\CloseBody\Bdn_natu379.jpg,NonAnimall,CloseBody,5,102,NonAnimall,3,1.50389960000757,1.61590259999502,1
C:\psychtool\AnimalDB\AnimalDB\Animall\MediumBody\M_N173020.jpg,Animall,MediumBody,5,103,Animall,5,0.820190600003116,0.931767000001855,1
C:\psychtool\AnimalDB\AnimalDB\Animall\CloseBody\B_N310065.jpg,Animall,CloseBody,5,104,Animall,5,0.434088499983773,0.546194700000342,1
C:\psychtool\AnimalDB\AnimalDB\Animall\MediumBody\M_N110035.jpg,Animall,MediumBody,5,105,Animall,5,0.420156800013501,0.532409899984486,1
C:\psychtool\AnimalDB\AnimalDB\Animall\FarBody\F_N541000.jpg,Animall,FarBody,5,106,Animall,5,0.503640199953225,0.615366499987431,1
C:\psychtool\AnimalDB\AnimalDB\Animall\CloseBody\B_N802028.jpg,Animall,CloseBody,5,107,Animall,5,0.420986299985088,0.53237180004362,1
C:\psychtool\AnimalDB\AnimalDB\NonAnimall\CloseBody\Bdn_text111.jpg,NonAnimall,CloseBody,5,108,Animall,5,0.41758770000888,0.529483299993444,0
C:\psychtool\AnimalDB\AnimalDB\NonAnimall\Head\Hdn_objn41.jpg,NonAnimall,Head,5,109,Animall,5,0.570332999981474,0.68358289997559,0
C:\psychtool\AnimalDB\AnimalDB\Animall\MediumBody\M_N168073.jpg,Animall,MediumBody,5,110,Animall,5,0.420315800001845,0.534671999979764,1
C:\psychtool\AnimalDB\AnimalDB\NonAnimall\FarBody\Fdn_nat155.jpg,NonAnimall,FarBody,5,111,NonAnimall,5,0.899646000005305,1.01165170001332,1
C:\psychtool\AnimalDB\AnimalDB\NonAnimall\Head\Hdn_N124064.jpg,NonAnimall,Head,5,112,NonAnimall,5,1.67826650000643,1.79047399997944,1
C:\psychtool\AnimalDB\AnimalDB\Animall\Head\H_N136011.jpg,Animall,Head,5,113,Animall,5,1.28393510001479,1.39576250000391,1
C:\psychtool\AnimalDB\AnimalDB\NonAnimall\MediumBody\Mdn_nat492.jpg,NonAnimall,MediumBody,5,114,NonAnimall,5,1.18721130001359,1.29922250000527,1
C:\psychtool\AnimalDB\AnimalDB\NonAnimall\CloseBody\Bdn_text17.jpg,NonAnimall,CloseBody,5,115,NonAnimall,5,1.09297030000016,1.20454110001447,1
C:\psychtool\AnimalDB\AnimalDB\NonAnimall\MediumBody\Mdn_land503.jpg,NonAnimall,MediumBody,5,116,Animall,5,0.650057099992409,0.761905899969861,0
C:\psychtool\AnimalDB\AnimalDB\NonAnimall\CloseBody\Bdn_natu156.jpg,NonAnimall,CloseBody,5,117,NonAnimall,4,1.10490030003712,1.21893009997439,1
C:\psychtool\AnimalDB\AnimalDB\NonAnimall\Head\Hdn_objn66.jpg,NonAnimall,Head,5,118,NonAnimall,5,1.13673809997272,1.25188820000039,1
C:\psychtool\AnimalDB\AnimalDB\NonAnimall\Head\Hdn_text6.jpg,NonAnimall,Head,5,119,NonAnimall,5,0.853427399997599,0.965080800000578,1
C:\psychtool\AnimalDB\AnimalDB\Animall\FarBody\F_N168033.jpg,Animall,FarBody,5,120,Animall,5,0.692674999998417,0.804087599972263,1
