file,category,distance,block,trial,response,confidence,responseTime,reactionTime,correct
C:\psychtool\AnimalDB\AnimalDB\NonAnimall\Head\Hda_obj12.jpg,NonAnimall,Head,1,1,NonAnimall,5,1.13676989999999,1.2486318,1
C:\psychtool\AnimalDB\AnimalDB\Animall\CloseBody\B_N104097.jpg,Animall,CloseBody,1,2,Animall,5,1.16391109999995,1.27574289999995,1
C:\psychtool\AnimalDB\AnimalDB\Animall\MediumBody\M_N253027.jpg,Animall,MediumBody,1,3,Animall,5,0.401515199999949,0.511608099999989,1
C:\psychtool\AnimalDB\AnimalDB\Animall\MediumBody\M_N268010.jpg,Animall,MediumBody,1,4,Animall,3,2.7876589,2.89849949999996,1
C:\psychtool\AnimalDB\AnimalDB\Animall\CloseBody\B_ani39.jpg,Animall,CloseBody,1,5,Animall,5,0.867425699999899,0.976084300000025,1
C:\psychtool\AnimalDB\AnimalDB\Animall\FarBody\F_N130086.jpg,Animall,FarBody,1,6,Animall,5,0.416827799999965,0.528177000000028,1
C:\psychtool\AnimalDB\AnimalDB\Animall\FarBody\F_N16076.jpg,Animall,FarBody,1,7,Animall,5,0.417909900000041,0.530381899999952,1
C:\psychtool\AnimalDB\AnimalDB\NonAnimall\CloseBody\Bda_art1263.jpg,NonAnimall,CloseBody,1,8,Animall,5,0.564315699999952,0.679303399999981,0
C:\psychtool\AnimalDB\AnimalDB\NonAnimall\FarBody\Fda_A673062.jpg,NonAnimall,FarBody,1,9,NonAnimall,3,1.15145649999999,1.26484990000006,1
C:\psychtool\AnimalDB\AnimalDB\NonAnimall\MediumBody\Mda_art7.jpg,NonAnimall,MediumBody,1,10,NonAnimall,5,0.876263699999981,0.991025100000002,1
C:\psychtool\AnimalDB\AnimalDB\Animall\CloseBody\B_N77081.jpg,Animall,CloseBody,1,11,Animall,5,0.744733699999983,0.859804699999927,1
C:\psychtool\AnimalDB\AnimalDB\NonAnimall\CloseBody\Bda_art621.jpg,NonAnimall,CloseBody,1,12,NonAnimall,5,1.09827710000002,1.21280659999991,1
C:\psychtool\AnimalDB\AnimalDB\Animall\MediumBody\M_N109037.jpg,Animall,MediumBody,1,13,Animall,5,0.584879099999966,0.701412600000026,1
C:\psychtool\AnimalDB\AnimalDB\NonAnimall\CloseBody\Bda_room4.jpg,NonAnimall,CloseBody,1,14,NonAnimall,3,1.49794940000004,1.61181950000002,1
C:\psychtool\AnimalDB\AnimalDB\NonAnimall\CloseBody\Bda_room165.jpg,NonAnimall,CloseBody,1,15,Animall,5,0.634999000000107,0.75039680000009,0
C:\psychtool\AnimalDB\AnimalDB\NonAnimall\CloseBody\Bda_art1185.jpg,NonAnimall,CloseBody,1,16,NonAnimall,5,1.17206250000004,1.2869207,1
C:\psychtool\AnimalDB\AnimalDB\NonAnimall\Head\Hda_obj56.jpg,NonAnimall,Head,1,17,NonAnimall,3,2.14557939999997,2.26040619999992,1
C:\psychtool\AnimalDB\AnimalDB\NonAnimall\CloseBody\Bda_room188.jpg,NonAnimall,CloseBody,1,18,NonAnimall,4,1.17391910000003,1.28896550000002,1
C:\psychtool\AnimalDB\AnimalDB\Animall\Head\H_N824044.jpg,Animall,Head,1,19,Animall,5,0.691586700000016,0.806448100000011,1
C:\psychtool\AnimalDB\AnimalDB\NonAnimall\Head\Hda_obj84.jpg,NonAnimall,Head,1,20,Animall,5,0.728830200000061,0.843862800000011,0
C:\psychtool\AnimalDB\AnimalDB\NonAnimall\MediumBody\Mda_art242.jpg,NonAnimall,MediumBody,1,21,Animall,5,0.35111459999996,0.465959799999951,0
C:\psychtool\AnimalDB\AnimalDB\NonAnimall\Head\Hda_obj96.jpg,NonAnimall,Head,1,22,Animall,5,0.476369299999988,0.591500500000052,0
C:\psychtool\AnimalDB\AnimalDB\Animall\Head\H_N247008.jpg,Animall,Head,1,23,Animall,5,0.384802000000036,0.500199500000008,1
C:\psychtool\AnimalDB\AnimalDB\NonAnimall\Head\Hda_obj92.jpg,NonAnimall,Head,1,24,Animall,3,1.26843550000001,1.38504159999991,0
C:\psychtool\AnimalDB\AnimalDB\Animall\MediumBody\M_N314057.jpg,Animall,MediumBody,1,25,Animall,5,0.796519400000079,0.911669799999913,1
C:\psychtool\AnimalDB\AnimalDB\Animall\Head\H_N824022.jpg,Animall,Head,1,26,Animall,5,0.447445299999913,0.562409699999989,1
C:\psychtool\AnimalDB\AnimalDB\NonAnimall\Head\Hda_obj51.jpg,NonAnimall,Head,1,27,Animall,5,0.484940399999914,0.601081900000054,0
C:\psychtool\AnimalDB\AnimalDB\NonAnimall\Head\Hda_obj252.jpg,NonAnimall,Head,1,28,Animall,5,0.422025800000029,0.537003499999969,0
C:\psychtool\AnimalDB\AnimalDB\NonAnimall\CloseBody\Bda_int16.jpg,NonAnimall,CloseBody,1,29,NonAnimall,4,1.12807209999994,1.24315350000006,1
C:\psychtool\AnimalDB\AnimalDB\NonAnimall\MediumBody\Mda_archi37.jpg,NonAnimall,MediumBody,1,30,NonAnimall,5,0.759142699999984,0.874115099999926,1
C:\psychtool\AnimalDB\AnimalDB\Animall\Head\H_N826048.jpg,Animall,Head,1,31,Animall,5,1.22781099999997,1.34285569999997,1
C:\psychtool\AnimalDB\AnimalDB\NonAnimall\FarBody\Fda_gre479.jpg,NonAnimall,FarBody,1,32,NonAnimall,3,1.26140610000004,1.37637159999997,1
C:\psychtool\AnimalDB\AnimalDB\Animall\CloseBody\B_N112022.jpg,Animall,CloseBody,1,33,Animall,5,0.727171699999985,0.842082900000037,1
C:\psychtool\AnimalDB\AnimalDB\Animall\Head\H_N676042.jpg,Animall,Head,1,34,Animall,5,0.6137473,0.728806300000088,1
C:\psychtool\AnimalDB\AnimalDB\Animall\MediumBody\M_N130081.jpg,Animall,MediumBody,1,35,Animall,5,0.489434899999992,0.604458499999964,1
C:\psychtool\AnimalDB\AnimalDB\Animall\Head\H_N168068.jpg,Animall,Head,1,36,Animall,5,0.412237300000015,0.527243999999996,1
C:\psychtool\AnimalDB\AnimalDB\Animall\Head\H_N816077.jpg,Animall,Head,1,37,Animall,5,0.501567600000044,0.61650880000002,1
C:\psychtool\AnimalDB\AnimalDB\NonAnimall\Head\Hda_obj182.jpg,NonAnimall,Head,1,38,NonAnimall,3,2.14516620000006,2.26020729999993,1
C:\psychtool\AnimalDB\AnimalDB\NonAnimall\CloseBody\Bda_art642.jpg,NonAnimall,CloseBody,1,39,NonAnimall,5,0.81614019999995,0.931254000000081,1
C:\psychtool\AnimalDB\AnimalDB\NonAnimall\FarBody\Fda_art1529.jpg,NonAnimall,FarBody,1,40,Animall,5,1.30684970000004,1.42190229999994,0
C:\psychtool\AnimalDB\AnimalDB\Animall\CloseBody\B_ani37.jpg,Animall,CloseBody,1,41,Animall,5,1.27829380000003,1.39326890000007,1
C:\psychtool\AnimalDB\AnimalDB\NonAnimall\MediumBody\Mda_art1030.jpg,NonAnimall,MediumBody,1,42,NonAnimall,4,1.14768550000008,1.26258310000003,1
C:\psychtool\AnimalDB\AnimalDB\Animall\FarBody\F_ani29.jpg,Animall,FarBody,1,43,Animall,5,0.696463999999992,0.811449100000004,1
C:\psychtool\AnimalDB\AnimalDB\Animall\Head\H_N130002.jpg,Animall,Head,1,44,Animall,5,0.641412500000001,0.756394900000032,1
C:\psychtool\AnimalDB\AnimalDB\Animall\CloseBody\B_N109016.jpg,Animall,CloseBody,1,45,Animall,5,1.15147300000001,1.26676169999996,1
C:\psychtool\AnimalDB\AnimalDB\Animall\Head\H_N247090.jpg,Animall,Head,1,46,Animall,5,0.85949370000003,0.974484500000017,1
C:\psychtool\AnimalDB\AnimalDB\Animall\CloseBody\B_N106094.jpg,Animall,CloseBody,1,47,Animall,5,0.64980079999998,0.764849000000027,1
C:\psychtool\AnimalDB\AnimalDB\NonAnimall\Head\Hda_obj100.jpg,NonAnimall,Head,1,48,NonAnimall,3,1.35860939999998,1.47360270000001,1
C:\psychtool\AnimalDB\AnimalDB\Animall\FarBody\F_N130050.jpg,Animall,FarBody,1,49,Animall,5,0.634807499999965,0.750375299999973,1
C:\psychtool\AnimalDB\AnimalDB\Animall\MediumBody\M_N123033.jpg,Animall,MediumBody,1,50,Animall,5,0.744183600000042,0.859397100000024,1
C:\psychtool\AnimalDB\AnimalDB\Animall\FarBody\F_ani52.jpg,Animall,FarBody,1,51,Animall,5,0.672251899999992,0.787253100000044,1
C:\psychtool\AnimalDB\AnimalDB\Animall\CloseBody\B_N209023.jpg,Animall,CloseBody,1,52,Animall,5,0.724008499999968,0.839065100000084,1
C:\psychtool\AnimalDB\AnimalDB\NonAnimall\MediumBody\Mda_gre90.jpg,NonAnimall,MediumBody,1,53,NonAnimall,5,1.3467776,1.46181940000008,1
C:\psychtool\AnimalDB\AnimalDB\NonAnimall\FarBody\Fda_art1394.jpg,NonAnimall,FarBody,1,54,NonAnimall,4,1.15551870000002,1.27061470000001,1
C:\psychtool\AnimalDB\AnimalDB\NonAnimall\FarBody\Fdn_text26.jpg,NonAnimall,FarBody,1,55,NonAnimall,4,1.18175339999993,1.29674929999999,1
C:\psychtool\AnimalDB\AnimalDB\NonAnimall\FarBody\Fda_urb715.jpg,NonAnimall,FarBody,1,56,NonAnimall,5,0.916712700000062,1.0315703,1
C:\psychtool\AnimalDB\AnimalDB\NonAnimall\Head\Hda_obj2.jpg,NonAnimall,Head,1,57,Animall,5,0.851378199999886,0.967633400000068,0
C:\psychtool\AnimalDB\AnimalDB\Animall\Head\H_N415081.jpg,Animall,Head,1,58,Animall,5,0.67203870000003,0.787158900000122,1
C:\psychtool\AnimalDB\AnimalDB\NonAnimall\MediumBody\Mda_art475.jpg,NonAnimall,MediumBody,1,59,NonAnimall,5,1.00660710000011,1.12161390000006,1
C:\psychtool\AnimalDB\AnimalDB\Animall\FarBody\F_N77054.jpg,Animall,FarBody,1,60,Animall,5,0.720919999999978,0.835936599999968,1
C:\psychtool\AnimalDB\AnimalDB\NonAnimall\Head\Hdn_objn38.jpg,NonAnimall,Head,1,61,Animall,3,1.1678287000002,1.28410129999997,0
C:\psychtool\AnimalDB\AnimalDB\NonAnimall\Head\Hdn_objn35.jpg,NonAnimall,Head,1,62,Animall,5,0.734229900000173,0.849283900000046,0
C:\psychtool\AnimalDB\AnimalDB\Animall\Head\H_N815083.jpg,Animall,Head,1,63,Animall,5,0.632197600000154,0.747247800000196,1
C:\psychtool\AnimalDB\AnimalDB\Animall\Head\H_N134022.jpg,Animall,Head,1,64,Animall,5,0.722392799999852,0.837550100000044,1
C:\psychtool\AnimalDB\AnimalDB\Animall\MediumBody\M_N136054.jpg,Animall,MediumBody,1,65,Animall,5,0.645808400000078,0.761028099999976,1
C:\psychtool\AnimalDB\AnimalDB\NonAnimall\Head\Hda_obj47.jpg,NonAnimall,Head,1,66,Animall,5,0.640256900000168,0.755365200000142,0
C:\psychtool\AnimalDB\AnimalDB\NonAnimall\FarBody\Fdn_text69.jpg,NonAnimall,FarBody,1,67,NonAnimall,3,1.23494670000014,1.35039829999982,1
C:\psychtool\AnimalDB\AnimalDB\NonAnimall\MediumBody\Mda_gre199.jpg,NonAnimall,MediumBody,1,68,NonAnimall,5,0.899507400000175,1.01426839999999,1
C:\psychtool\AnimalDB\AnimalDB\Animall\FarBody\F_land93.jpg,Animall,FarBody,1,69,Animall,5,0.723261699999966,0.838156100000106,1
C:\psychtool\AnimalDB\AnimalDB\NonAnimall\Head\Hda_obj98.jpg,NonAnimall,Head,1,70,Animall,2,1.93342540000003,2.04837090000001,0
C:\psychtool\AnimalDB\AnimalDB\Animall\FarBody\F_N828048.jpg,Animall,FarBody,1,71,Animall,5,0.622621900000013,0.737595099999908,1
C:\psychtool\AnimalDB\AnimalDB\NonAnimall\FarBody\Fda_A487031.jpg,NonAnimall,FarBody,1,72,NonAnimall,5,0.919294700000137,1.03576539999995,1
C:\psychtool\AnimalDB\AnimalDB\NonAnimall\CloseBody\Bda_int78.jpg,NonAnimall,CloseBody,1,73,NonAnimall,4,1.06801910000013,1.18417669999985,1
C:\psychtool\AnimalDB\AnimalDB\NonAnimall\CloseBody\Bda_room452.jpg,NonAnimall,CloseBody,1,74,NonAnimall,2,1.66243629999985,1.77743820000001,1
C:\psychtool\AnimalDB\AnimalDB\NonAnimall\CloseBody\Bdn_text121.jpg,NonAnimall,CloseBody,1,75,Animall,5,0.629106299999876,0.744222000000036,0
C:\psychtool\AnimalDB\AnimalDB\NonAnimall\Head\Hda_obj416.jpg,NonAnimall,Head,1,76,NonAnimall,5,1.14552090000007,1.26039090000017,1
C:\psychtool\AnimalDB\AnimalDB\NonAnimall\CloseBody\Bda_art1164.jpg,NonAnimall,CloseBody,1,77,NonAnimall,4,1.56810380000002,1.68413280000004,1
C:\psychtool\AnimalDB\AnimalDB\Animall\MediumBody\M_N110035.jpg,Animall,MediumBody,1,78,Animall,5,0.893630999999914,1.00872639999989,1
C:\psychtool\AnimalDB\AnimalDB\Animall\Head\H_N209038.jpg,Animall,Head,1,79,Animall,5,1.70387530000016,1.81879079999999,1
C:\psychtool\AnimalDB\AnimalDB\Animall\FarBody\F_N43008.jpg,Animall,FarBody,1,80,Animall,5,0.834724199999982,0.949693300000035,1
C:\psychtool\AnimalDB\AnimalDB\Animall\CloseBody\B_N49068.jpg,Animall,CloseBody,1,81,Animall,5,0.706175499999972,0.821495400000003,1
C:\psychtool\AnimalDB\AnimalDB\Animall\MediumBody\M_N408059.jpg,Animall,MediumBody,1,82,Animall,5,0.609929999999849,0.724850399999923,1
C:\psychtool\AnimalDB\AnimalDB\Animall\Head\H_N802027.jpg,Animall,Head,1,83,Animall,5,0.580399400000033,0.695445199999995,1
C:\psychtool\AnimalDB\AnimalDB\NonAnimall\MediumBody\Mda_gre321.jpg,NonAnimall,MediumBody,1,84,NonAnimall,5,1.04247740000005,1.15726229999996,1
C:\psychtool\AnimalDB\AnimalDB\NonAnimall\MediumBody\Mda_archi289.jpg,NonAnimall,MediumBody,1,85,NonAnimall,5,1.29521179999983,1.41026050000005,1
C:\psychtool\AnimalDB\AnimalDB\NonAnimall\MediumBody\Mda_hexp26.jpg,NonAnimall,MediumBody,1,86,NonAnimall,5,1.00124609999989,1.11672090000002,1
C:\psychtool\AnimalDB\AnimalDB\NonAnimall\CloseBody\Bda_int770.jpg,NonAnimall,CloseBody,1,87,NonAnimall,5,0.968355299999985,1.08485429999996,1
C:\psychtool\AnimalDB\AnimalDB\Animall\MediumBody\M_N109023.jpg,Animall,MediumBody,1,88,Animall,5,0.798653299999842,0.913655800000015,1
C:\psychtool\AnimalDB\AnimalDB\NonAnimall\CloseBody\Bda_art1156.jpg,NonAnimall,CloseBody,1,89,NonAnimall,5,0.943763499999932,1.05884790000005,1
C:\psychtool\AnimalDB\AnimalDB\NonAnimall\Head\Hda_obj324.jpg,NonAnimall,Head,1,90,NonAnimall,5,0.821643300000005,0.936591600000156,1
C:\psychtool\AnimalDB\AnimalDB\Animall\Head\H_N825085.jpg,Animall,Head,1,91,Animall,5,0.642552600000045,0.75772169999982,1
C:\psychtool\AnimalDB\AnimalDB\Animall\CloseBody\B_ani30.jpg,Animall,CloseBody,1,92,Animall,5,0.515061500000002,0.630309800000077,1
C:\psychtool\AnimalDB\AnimalDB\Animall\MediumBody\M_N130094.jpg,Animall,MediumBody,1,93,Animall,5,0.686943699999802,0.801974299999983,1
C:\psychtool\AnimalDB\AnimalDB\Animall\MediumBody\M_N109046.jpg,Animall,MediumBody,1,94,Animall,5,0.637752599999885,0.752674900000102,1
C:\psychtool\AnimalDB\AnimalDB\Animall\FarBody\F_ani22.jpg,Animall,FarBody,1,95,Animall,5,0.801728599999933,0.917517399999952,1
C:\psychtool\AnimalDB\AnimalDB\NonAnimall\CloseBody\Bda_urb280.jpg,NonAnimall,CloseBody,1,96,NonAnimall,5,1.20129700000007,1.31655320000004,1
C:\psychtool\AnimalDB\AnimalDB\NonAnimall\MediumBody\Mda_urb580.jpg,NonAnimall,MediumBody,1,97,NonAnimall,5,1.13458059999994,1.25009440000008,1
C:\psychtool\AnimalDB\AnimalDB\NonAnimall\MediumBody\Mda_art547.jpg,NonAnimall,MediumBody,1,98,NonAnimall,5,1.19570390000013,1.3108095,1
C:\psychtool\AnimalDB\AnimalDB\Animall\Head\H_N824009.jpg,Animall,Head,1,99,Animall,5,0.745219500000076,0.860296699999935,1
C:\psychtool\AnimalDB\AnimalDB\NonAnimall\MediumBody\Mda_art599.jpg,NonAnimall,MediumBody,1,100,NonAnimall,5,0.866189200000008,0.981102499999906,1
C:\psychtool\AnimalDB\AnimalDB\Animall\CloseBody\B_N106019.jpg,Animall,CloseBody,1,101,Animall,5,0.651450800000021,0.767196499999955,1
C:\psychtool\AnimalDB\AnimalDB\NonAnimall\MediumBody\Mda_art573.jpg,NonAnimall,MediumBody,1,102,NonAnimall,5,0.906546200000093,1.02143359999991,1
C:\psychtool\AnimalDB\AnimalDB\Animall\MediumBody\M_N168034.jpg,Animall,MediumBody,1,103,Animall,5,0.72814470000003,0.843230799999901,1
C:\psychtool\AnimalDB\AnimalDB\NonAnimall\MediumBody\Mda_archi100.jpg,NonAnimall,MediumBody,1,104,NonAnimall,5,0.993818099999999,1.10867379999991,1
C:\psychtool\AnimalDB\AnimalDB\Animall\FarBody\F_N77018.jpg,Animall,FarBody,1,105,Animall,5,0.717845099999977,0.834526699999969,1
C:\psychtool\AnimalDB\AnimalDB\Animall\CloseBody\B_N107010.jpg,Animall,CloseBody,1,106,Animall,5,0.66829719999987,0.783952500000169,1
C:\psychtool\AnimalDB\AnimalDB\Animall\CloseBody\B_N107001.jpg,Animall,CloseBody,1,107,Animall,5,0.767326799999864,0.882488299999977,1
C:\psychtool\AnimalDB\AnimalDB\NonAnimall\CloseBody\Bda_art904.jpg,NonAnimall,CloseBody,1,108,NonAnimall,5,0.83692649999989,0.951777100000072,1
C:\psychtool\AnimalDB\AnimalDB\NonAnimall\CloseBody\Bda_art1175.jpg,NonAnimall,CloseBody,1,109,NonAnimall,5,1.01118939999992,1.12620059999995,1
C:\psychtool\AnimalDB\AnimalDB\NonAnimall\FarBody\Fda_art1420.jpg,NonAnimall,FarBody,1,110,NonAnimall,5,0.946460600000137,1.0614587,1
C:\psychtool\AnimalDB\AnimalDB\NonAnimall\FarBody\Fda_art1017.jpg,NonAnimall,FarBody,1,111,NonAnimall,5,1.10125270000003,1.21675060000007,1
C:\psychtool\AnimalDB\AnimalDB\NonAnimall\Head\Hda_obj112.jpg,NonAnimall,Head,1,112,NonAnimall,5,1.08776949999992,1.20265619999986,1
C:\psychtool\AnimalDB\AnimalDB\Animall\CloseBody\B_N77089.jpg,Animall,CloseBody,1,113,Animall,5,0.574978600000122,0.689824799999997,1
C:\psychtool\AnimalDB\AnimalDB\NonAnimall\FarBody\Fda_A805078.jpg,NonAnimall,FarBody,1,114,NonAnimall,5,1.03467899999987,1.15218229999982,1
C:\psychtool\AnimalDB\AnimalDB\NonAnimall\CloseBody\Bda_obj123.jpg,NonAnimall,CloseBody,1,115,NonAnimall,5,1.0530455999999,1.16797550000001,1
C:\psychtool\AnimalDB\AnimalDB\NonAnimall\FarBody\Fda_A219084.jpg,NonAnimall,FarBody,1,116,NonAnimall,5,1.02267880000022,1.13773859999992,1
C:\psychtool\AnimalDB\AnimalDB\Animall\FarBody\F_N43060.jpg,Animall,FarBody,1,117,Animall,5,0.895204700000022,1.01309570000012,1
C:\psychtool\AnimalDB\AnimalDB\NonAnimall\CloseBody\Bda_gre298.jpg,NonAnimall,CloseBody,1,118,NonAnimall,5,0.976455900000019,1.09154160000003,1
C:\psychtool\AnimalDB\AnimalDB\Animall\FarBody\F_N77035.jpg,Animall,FarBody,1,119,Animall,5,0.834115900000143,0.949077500000158,1
C:\psychtool\AnimalDB\AnimalDB\NonAnimall\MediumBody\Mda_art517.jpg,NonAnimall,MediumBody,1,120,NonAnimall,5,0.851556200000005,0.967100700000174,1
C:\psychtool\AnimalDB\AnimalDB\Animall\Head\H_N816021.jpg,Animall,Head,2,1,Animall,5,0.786877199999935,0.902165199999899,1
C:\psychtool\AnimalDB\AnimalDB\Animall\Head\H_N458059.jpg,Animall,Head,2,2,Animall,5,0.711860599999909,0.827004700000089,1
C:\psychtool\AnimalDB\AnimalDB\Animall\MediumBody\M_N136056.jpg,Animall,MediumBody,2,3,Animall,5,0.640630899999906,0.755689399999937,1
C:\psychtool\AnimalDB\AnimalDB\NonAnimall\CloseBody\Bda_urb272.jpg,NonAnimall,CloseBody,2,4,NonAnimall,5,0.827902100000074,0.94285200000013,1
C:\psychtool\AnimalDB\AnimalDB\NonAnimall\MediumBody\Mda_urb556.jpg,NonAnimall,MediumBody,2,5,NonAnimall,5,1.03845320000005,1.15353640000012,1
C:\psychtool\AnimalDB\AnimalDB\NonAnimall\MediumBody\Mda_par140.jpg,NonAnimall,MediumBody,2,6,NonAnimall,4,0.870763399999987,0.98587160000011,1
C:\psychtool\AnimalDB\AnimalDB\Animall\CloseBody\B_N108087.jpg,Animall,CloseBody,2,7,Animall,5,0.682448700000123,0.797273500000074,1
C:\psychtool\AnimalDB\AnimalDB\NonAnimall\MediumBody\Mda_urb515.jpg,NonAnimall,MediumBody,2,8,NonAnimall,5,0.787802000000056,0.902814799999987,1
C:\psychtool\AnimalDB\AnimalDB\NonAnimall\FarBody\Fda_art336.jpg,NonAnimall,FarBody,2,9,NonAnimall,5,0.724881600000117,0.840034500000002,1
C:\psychtool\AnimalDB\AnimalDB\NonAnimall\MediumBody\Mda_urb230.jpg,NonAnimall,MediumBody,2,10,NonAnimall,5,0.697223299999905,0.812183499999946,1
C:\psychtool\AnimalDB\AnimalDB\Animall\Head\H_N123040.jpg,Animall,Head,2,11,Animall,5,1.14357960000007,1.25866760000008,1
C:\psychtool\AnimalDB\AnimalDB\Animall\Head\H_N160053.jpg,Animall,Head,2,12,Animall,5,0.617982199999915,0.732876000000033,1
C:\psychtool\AnimalDB\AnimalDB\NonAnimall\Head\Hda_obj176.jpg,NonAnimall,Head,2,13,Animall,5,0.777353999999832,0.89230509999993,0
C:\psychtool\AnimalDB\AnimalDB\NonAnimall\FarBody\Fda_A673086.jpg,NonAnimall,FarBody,2,14,NonAnimall,5,0.796126200000117,0.911328400000002,1
C:\psychtool\AnimalDB\AnimalDB\NonAnimall\MediumBody\Mda_art22.jpg,NonAnimall,MediumBody,2,15,NonAnimall,5,1.06243630000017,1.17756400000007,1
C:\psychtool\AnimalDB\AnimalDB\Animall\MediumBody\M_N173021.jpg,Animall,MediumBody,2,16,Animall,5,0.681212599999981,0.796214200000122,1
C:\psychtool\AnimalDB\AnimalDB\Animall\CloseBody\B_N77061.jpg,Animall,CloseBody,2,17,Animall,5,1.22895049999988,1.34391320000009,1
C:\psychtool\AnimalDB\AnimalDB\NonAnimall\FarBody\Fda_art1418.jpg,NonAnimall,FarBody,2,18,NonAnimall,3,0.984919999999875,1.09981890000017,1
C:\psychtool\AnimalDB\AnimalDB\NonAnimall\FarBody\Fda_A223013.jpg,NonAnimall,FarBody,2,19,Animall,4,1.54105330000016,1.65618070000005,0
C:\psychtool\AnimalDB\AnimalDB\Animall\Head\H_N130063.jpg,Animall,Head,2,20,Animall,5,0.924034199999824,1.03914469999995,1
C:\psychtool\AnimalDB\AnimalDB\NonAnimall\FarBody\Fda_art1464.jpg,NonAnimall,FarBody,2,21,NonAnimall,5,0.916596499999969,1.03158870000016,1
C:\psychtool\AnimalDB\AnimalDB\Animall\CloseBody\B_N70069.jpg,Animall,CloseBody,2,22,Animall,5,0.784945600000128,0.901030400000081,1
C:\psychtool\AnimalDB\AnimalDB\Animall\CloseBody\B_N75036.jpg,Animall,CloseBody,2,23,Animall,5,0.611674700000094,0.726727800000162,1
C:\psychtool\AnimalDB\AnimalDB\Animall\MediumBody\M_N123039.jpg,Animall,MediumBody,2,24,Animall,5,0.561320999999907,0.676408100000117,1
C:\psychtool\AnimalDB\AnimalDB\NonAnimall\MediumBody\Mda_archi56.jpg,NonAnimall,MediumBody,2,25,NonAnimall,5,0.799812900000006,0.914738899999975,1
C:\psychtool\AnimalDB\AnimalDB\Animall\Head\H_N816047.jpg,Animall,Head,2,26,Animall,5,0.611189599999989,0.726196500000015,1
C:\psychtool\AnimalDB\AnimalDB\Animall\CloseBody\B_N75095.jpg,Animall,CloseBody,2,27,Animall,5,0.732629800000041,0.847627300000113,1
C:\psychtool\AnimalDB\AnimalDB\Animall\CloseBody\B_N123069.jpg,Animall,CloseBody,2,28,Animall,5,0.799402300000111,0.914516499999991,1
C:\psychtool\AnimalDB\AnimalDB\NonAnimall\CloseBody\Bda_art145.jpg,NonAnimall,CloseBody,2,29,NonAnimall,5,1.09460720000015,1.20950400000015,1
C:\psychtool\AnimalDB\AnimalDB\Animall\CloseBody\B_N160076.jpg,Animall,CloseBody,2,30,Animall,5,0.622042700000065,0.73705689999997,1
C:\psychtool\AnimalDB\AnimalDB\Animall\MediumBody\M_N130070.jpg,Animall,MediumBody,2,31,Animall,5,1.05801569999994,1.17313100000001,1
C:\psychtool\AnimalDB\AnimalDB\NonAnimall\MediumBody\Mda_urb382.jpg,NonAnimall,MediumBody,2,32,NonAnimall,5,1.03485959999989,1.14976200000001,1
C:\psychtool\AnimalDB\AnimalDB\NonAnimall\MediumBody\Mda_gre189.jpg,NonAnimall,MediumBody,2,33,NonAnimall,5,1.15384480000012,1.26920660000019,1
C:\psychtool\AnimalDB\AnimalDB\Animall\FarBody\F_N77056.jpg,Animall,FarBody,2,34,Animall,5,0.675978299999997,0.791164299999991,1
C:\psychtool\AnimalDB\AnimalDB\NonAnimall\MediumBody\Mda_archi422.jpg,NonAnimall,MediumBody,2,35,NonAnimall,5,0.738739300000134,0.853882999999996,1
C:\psychtool\AnimalDB\AnimalDB\NonAnimall\MediumBody\Mda_archi42.jpg,NonAnimall,MediumBody,2,36,Animall,5,0.810527899999897,0.925405599999976,0
C:\psychtool\AnimalDB\AnimalDB\NonAnimall\FarBody\Fda_A462040.jpg,NonAnimall,FarBody,2,37,NonAnimall,4,1.24154989999988,1.35661720000007,1
C:\psychtool\AnimalDB\AnimalDB\NonAnimall\FarBody\Fda_enc51.jpg,NonAnimall,FarBody,2,38,NonAnimall,5,1.07687149999992,1.19192479999992,1
C:\psychtool\AnimalDB\AnimalDB\Animall\FarBody\F_N105041.jpg,Animall,FarBody,2,39,Animall,5,1.13450350000016,1.24965320000001,1
C:\psychtool\AnimalDB\AnimalDB\NonAnimall\Head\Hda_int457.jpg,NonAnimall,Head,2,40,NonAnimall,3,1.10638210000002,1.22138300000006,1
C:\psychtool\AnimalDB\AnimalDB\Animall\FarBody\F_N828029.jpg,Animall,FarBody,2,41,Animall,3,1.37362229999985,1.48853719999988,1
C:\psychtool\AnimalDB\AnimalDB\NonAnimall\Head\Hda_int170.jpg,NonAnimall,Head,2,42,NonAnimall,5,1.11488020000002,1.23250959999996,1
C:\psychtool\AnimalDB\AnimalDB\Animall\CloseBody\B_N43014.jpg,Animall,CloseBody,2,43,Animall,5,0.567815599999903,0.682831999999962,1
C:\psychtool\AnimalDB\AnimalDB\NonAnimall\CloseBody\Bda_enc89.jpg,NonAnimall,CloseBody,2,44,NonAnimall,3,1.04796020000003,1.16287360000001,1
C:\psychtool\AnimalDB\AnimalDB\NonAnimall\Head\Hda_int314.jpg,NonAnimall,Head,2,45,NonAnimall,5,1.10502820000011,1.22003110000014,1
C:\psychtool\AnimalDB\AnimalDB\Animall\FarBody\F_N42070.jpg,Animall,FarBody,2,46,Animall,4,1.09989700000006,1.21495140000002,1
C:\psychtool\AnimalDB\AnimalDB\Animall\CloseBody\B_N107080.jpg,Animall,CloseBody,2,47,NonAnimall,4,1.11631370000009,1.23182680000014,0
C:\psychtool\AnimalDB\AnimalDB\Animall\Head\H_N676023.jpg,Animall,Head,2,48,Animall,5,0.777694599999904,0.892676700000038,1
C:\psychtool\AnimalDB\AnimalDB\NonAnimall\CloseBody\Bda_room185.jpg,NonAnimall,CloseBody,2,49,NonAnimall,5,0.712028799999871,0.827043000000003,1
C:\psychtool\AnimalDB\AnimalDB\Animall\Head\H_N134076.jpg,Animall,Head,2,50,Animall,5,0.890315800000053,1.00552519999997,1
C:\psychtool\AnimalDB\AnimalDB\Animall\MediumBody\M_N289028.jpg,Animall,MediumBody,2,51,Animall,5,1.85924329999989,1.9743727,1
C:\psychtool\AnimalDB\AnimalDB\Animall\MediumBody\M_N168073.jpg,Animall,MediumBody,2,52,Animall,5,0.588686199999984,0.70372210000005,1
C:\psychtool\AnimalDB\AnimalDB\Animall\FarBody\F_N130006.jpg,Animall,FarBody,2,53,Animall,5,1.64667559999998,1.76184109999986,1
C:\psychtool\AnimalDB\AnimalDB\Animall\Head\H_N253037.jpg,Animall,Head,2,54,Animall,5,0.815366799999993,0.930449899999985,1
C:\psychtool\AnimalDB\AnimalDB\Animall\MediumBody\M_N112018.jpg,Animall,MediumBody,2,55,Animall,5,2.5983490000001,2.71351619999996,1
C:\psychtool\AnimalDB\AnimalDB\Animall\FarBody\F_N43031.jpg,Animall,FarBody,2,56,NonAnimall,5,1.56709580000006,1.68206050000003,0
C:\psychtool\AnimalDB\AnimalDB\Animall\MediumBody\M_N485043.jpg,Animall,MediumBody,2,57,Animall,5,0.622630800000024,0.737701100000095,1
C:\psychtool\AnimalDB\AnimalDB\NonAnimall\Head\Hdn_text6.jpg,NonAnimall,Head,2,58,NonAnimall,3,1.00633629999993,1.12147030000006,1
C:\psychtool\AnimalDB\AnimalDB\Animall\Head\H_N253019.jpg,Animall,Head,2,59,Animall,5,0.776448600000094,0.89143080000008,1
C:\psychtool\AnimalDB\AnimalDB\Animall\FarBody\F_N77037.jpg,Animall,FarBody,2,60,Animall,5,0.3907557,0.505773900000122,1
C:\psychtool\AnimalDB\AnimalDB\NonAnimall\CloseBody\Bda_room170.jpg,NonAnimall,CloseBody,2,61,NonAnimall,3,1.44948079999995,1.56458220000013,1
C:\psychtool\AnimalDB\AnimalDB\Animall\MediumBody\M_N160059.jpg,Animall,MediumBody,2,62,Animall,5,0.706939200000079,0.822011000000202,1
C:\psychtool\AnimalDB\AnimalDB\Animall\CloseBody\B_N52040.jpg,Animall,CloseBody,2,63,Animall,5,1.08284459999982,1.19800680000003,1
C:\psychtool\AnimalDB\AnimalDB\Animall\Head\H_N136052.jpg,Animall,Head,2,64,Animall,5,0.439151600000059,0.554249200000186,1
C:\psychtool\AnimalDB\AnimalDB\Animall\FarBody\F_N103083.jpg,Animall,FarBody,2,65,Animall,2,1.31037859999992,1.42547130000003,1
C:\psychtool\AnimalDB\AnimalDB\NonAnimall\Head\Hda_obj295.jpg,NonAnimall,Head,2,66,NonAnimall,4,1.42563810000001,1.54072810000002,1
C:\psychtool\AnimalDB\AnimalDB\NonAnimall\Head\Hda_room425.jpg,NonAnimall,Head,2,67,NonAnimall,5,1.21252030000005,1.32760260000009,1
C:\psychtool\AnimalDB\AnimalDB\NonAnimall\Head\Hda_obj89.jpg,NonAnimall,Head,2,68,NonAnimall,5,1.03413159999991,1.14933130000009,1
C:\psychtool\AnimalDB\AnimalDB\NonAnimall\Head\Hda_int888.jpg,NonAnimall,Head,2,69,NonAnimall,5,0.873033599999872,0.988100899999836,1
C:\psychtool\AnimalDB\AnimalDB\Animall\FarBody\F_ani25.jpg,Animall,FarBody,2,70,Animall,5,0.781251399999974,0.896473799999967,1
C:\psychtool\AnimalDB\AnimalDB\NonAnimall\Head\Hda_obj265.jpg,NonAnimall,Head,2,71,NonAnimall,5,1.03498399999989,1.15064599999982,1
C:\psychtool\AnimalDB\AnimalDB\NonAnimall\FarBody\Fda_art1465.jpg,NonAnimall,FarBody,2,72,NonAnimall,5,1.04443880000008,1.15973230000009,1
C:\psychtool\AnimalDB\AnimalDB\NonAnimall\CloseBody\Bda_art1271.jpg,NonAnimall,CloseBody,2,73,NonAnimall,5,0.798788000000059,0.913680999999997,1
C:\psychtool\AnimalDB\AnimalDB\NonAnimall\MediumBody\Mda_art545.jpg,NonAnimall,MediumBody,2,74,NonAnimall,5,1.03448049999997,1.15017919999991,1
C:\psychtool\AnimalDB\AnimalDB\NonAnimall\MediumBody\Mda_art1517.jpg,NonAnimall,MediumBody,2,75,NonAnimall,5,1.04825950000009,1.16329079999991,1
C:\psychtool\AnimalDB\AnimalDB\NonAnimall\MediumBody\Mda_urb659.jpg,NonAnimall,MediumBody,2,76,NonAnimall,5,0.838654000000133,0.953504300000077,1
C:\psychtool\AnimalDB\AnimalDB\Animall\Head\H_N134031.jpg,Animall,Head,2,77,Animall,5,0.841746699999931,0.956874199999902,1
C:\psychtool\AnimalDB\AnimalDB\NonAnimall\CloseBody\Bda_int741.jpg,NonAnimall,CloseBody,2,78,Animall,5,0.76335210000002,0.878273199999967,0
C:\psychtool\AnimalDB\AnimalDB\Animall\FarBody\F_N77085.jpg,Animall,FarBody,2,79,Animall,5,0.659427599999844,0.774659900000188,1
C:\psychtool\AnimalDB\AnimalDB\Animall\Head\H_N427004.jpg,Animall,Head,2,80,Animall,5,0.641267400000061,0.756257999999889,1
C:\psychtool\AnimalDB\AnimalDB\NonAnimall\Head\Hda_obj105.jpg,NonAnimall,Head,2,81,NonAnimall,3,1.08255680000002,1.20115209999994,1
C:\psychtool\AnimalDB\AnimalDB\Animall\FarBody\F_N70038.jpg,Animall,FarBody,2,82,Animall,5,0.711010100000067,0.825997299999926,1
C:\psychtool\AnimalDB\AnimalDB\Animall\FarBody\F_land891.jpg,Animall,FarBody,2,83,NonAnimall,3,1.56142670000008,1.67649740000002,0
C:\psychtool\AnimalDB\AnimalDB\Animall\FarBody\F_N130047.jpg,Animall,FarBody,2,84,Animall,5,0.583017599999948,0.69791680000003,1
C:\psychtool\AnimalDB\AnimalDB\NonAnimall\FarBody\Fda_art1486.jpg,NonAnimall,FarBody,2,85,NonAnimall,5,0.746352599999909,0.861580000000004,1
C:\psychtool\AnimalDB\AnimalDB\NonAnimall\MediumBody\Mda_archi277.jpg,NonAnimall,MediumBody,2,86,NonAnimall,5,1.02464140000006,1.13965980000012,1
C:\psychtool\AnimalDB\AnimalDB\NonAnimall\Head\Hda_obj343.jpg,NonAnimall,Head,2,87,NonAnimall,5,1.11662249999995,1.23173820000011,1
C:\psychtool\AnimalDB\AnimalDB\NonAnimall\FarBody\Fda_art709.jpg,NonAnimall,FarBody,2,88,NonAnimall,3,1.19120360000011,1.30613000000017,1
C:\psychtool\AnimalDB\AnimalDB\Animall\CloseBody\B_N109057.jpg,Animall,CloseBody,2,89,Animall,5,1.12703639999995,1.24204469999995,1
C:\psychtool\AnimalDB\AnimalDB\NonAnimall\Head\Hda_obj57.jpg,NonAnimall,Head,2,90,NonAnimall,3,1.28799329999993,1.40298039999993,1
C:\psychtool\AnimalDB\AnimalDB\Animall\Head\H_N707010.jpg,Animall,Head,2,91,Animall,5,0.898191100000076,1.01325079999992,1
C:\psychtool\AnimalDB\AnimalDB\NonAnimall\CloseBody\Bda_art1158.jpg,NonAnimall,CloseBody,2,92,NonAnimall,5,1.08037009999998,1.19513800000004,1
C:\psychtool\AnimalDB\AnimalDB\NonAnimall\FarBody\Fdn_sclos3.jpg,NonAnimall,FarBody,2,93,Animall,5,0.692314499999839,0.807274900000039,0
C:\psychtool\AnimalDB\AnimalDB\Animall\CloseBody\B_N109077.jpg,Animall,CloseBody,2,94,Animall,5,0.661620600000106,0.776702200000045,1
C:\psychtool\AnimalDB\AnimalDB\NonAnimall\FarBody\Fda_A487089.jpg,NonAnimall,FarBody,2,95,NonAnimall,5,1.59236939999982,1.12267429999997,1
C:\psychtool\AnimalDB\AnimalDB\Animall\FarBody\F_N130011.jpg,Animall,FarBody,2,96,Animall,5,0.700163900000007,0.815071099999841,1
C:\psychtool\AnimalDB\AnimalDB\NonAnimall\FarBody\Fda_urb540.jpg,NonAnimall,FarBody,2,97,NonAnimall,3,0.990359200000057,1.10555210000007,1
C:\psychtool\AnimalDB\AnimalDB\Animall\MediumBody\M_N109065.jpg,Animall,MediumBody,2,98,Animall,5,0.751130999999987,0.867312099999936,1
C:\psychtool\AnimalDB\AnimalDB\NonAnimall\FarBody\Fda_A463033.jpg,NonAnimall,FarBody,2,99,NonAnimall,5,1.0684490000001,1.18421289999992,1
C:\psychtool\AnimalDB\AnimalDB\NonAnimall\CloseBody\Bda_art1367.jpg,NonAnimall,CloseBody,2,100,NonAnimall,5,1.06529020000016,1.18036970000003,1
C:\psychtool\AnimalDB\AnimalDB\Animall\MediumBody\M_N289080.jpg,Animall,MediumBody,2,101,Animall,5,0.664823299999853,0.780046300000095,1
C:\psychtool\AnimalDB\AnimalDB\Animall\MediumBody\M_N160002.jpg,Animall,MediumBody,2,102,Animall,5,1.02579390000005,0.740770799999837,1
C:\psychtool\AnimalDB\AnimalDB\Animall\FarBody\F_N104019.jpg,Animall,FarBody,2,103,Animall,5,0.379000199999837,0.494152600000007,1
C:\psychtool\AnimalDB\AnimalDB\NonAnimall\MediumBody\Mda_art175.jpg,NonAnimall,MediumBody,2,104,NonAnimall,5,1.02005229999986,1.13506699999994,1
C:\psychtool\AnimalDB\AnimalDB\Animall\CloseBody\B_N107030.jpg,Animall,CloseBody,2,105,Animall,5,0.620071199999984,0.73510680000004,1
C:\psychtool\AnimalDB\AnimalDB\NonAnimall\CloseBody\Bda_art682.jpg,NonAnimall,CloseBody,2,106,NonAnimall,5,0.823736399999916,0.938613199999963,1
C:\psychtool\AnimalDB\AnimalDB\Animall\MediumBody\M_N173025.jpg,Animall,MediumBody,2,107,Animall,5,0.568783000000167,0.684497899999997,1
C:\psychtool\AnimalDB\AnimalDB\NonAnimall\CloseBody\Bda_room12.jpg,NonAnimall,CloseBody,2,108,NonAnimall,5,0.973884699999871,1.08900310000013,1
C:\psychtool\AnimalDB\AnimalDB\NonAnimall\CloseBody\Bda_gre328.jpg,NonAnimall,CloseBody,2,109,NonAnimall,5,1.02086299999996,1.13590160000012,1
C:\psychtool\AnimalDB\AnimalDB\Animall\Head\H_N253061.jpg,Animall,Head,2,110,Animall,5,0.701392299999952,0.817052400000193,1
C:\psychtool\AnimalDB\AnimalDB\Animall\Head\H_N415079.jpg,Animall,Head,2,111,Animall,5,0.783132799999976,0.898133299999927,1
C:\psychtool\AnimalDB\AnimalDB\Animall\MediumBody\M_N314023.jpg,Animall,MediumBody,2,112,Animall,5,0.867454299999963,0.982435500000065,1
C:\psychtool\AnimalDB\AnimalDB\Animall\Head\H_N828096.jpg,Animall,Head,2,113,Animall,5,0.377059099999997,0.492174199999909,1
C:\psychtool\AnimalDB\AnimalDB\Animall\Head\H_N825080.jpg,Animall,Head,2,114,Animall,5,0.351475500000106,0.466947199999822,1
C:\psychtool\AnimalDB\AnimalDB\NonAnimall\Head\Hda_obj293.jpg,NonAnimall,Head,2,115,Animall,5,0.356101200000012,0.471108100000038,0
C:\psychtool\AnimalDB\AnimalDB\Animall\MediumBody\M_N314099.jpg,Animall,MediumBody,2,116,Animall,5,0.438161600000058,0.553245400000151,1
C:\psychtool\AnimalDB\AnimalDB\NonAnimall\FarBody\Fda_A244068.jpg,NonAnimall,FarBody,2,117,NonAnimall,5,0.940464399999883,1.05545759999995,1
C:\psychtool\AnimalDB\AnimalDB\Animall\CloseBody\B_N106095.jpg,Animall,CloseBody,2,118,Animall,5,0.901031299999886,1.01602879999996,1
C:\psychtool\AnimalDB\AnimalDB\NonAnimall\Head\Hda_obj257.jpg,NonAnimall,Head,2,119,NonAnimall,5,0.995612100000017,1.11065110000004,1
C:\psychtool\AnimalDB\AnimalDB\NonAnimall\FarBody\Fda_city89.jpg,NonAnimall,FarBody,2,120,NonAnimall,5,1.09795340000005,1.21281679999993,1
C:\psychtool\AnimalDB\AnimalDB\Animall\CloseBody\B_N100040.jpg,Animall,CloseBody,3,1,Animall,5,1.37658310000006,1.48842029999992,1
C:\psychtool\AnimalDB\AnimalDB\NonAnimall\CloseBody\Bda_room40.jpg,NonAnimall,CloseBody,3,2,NonAnimall,5,0.941246399999955,1.05404320000002,1
C:\psychtool\AnimalDB\AnimalDB\NonAnimall\Head\Hdn_objn37.jpg,NonAnimall,Head,3,3,Animall,5,0.923279099999945,1.03829169999995,0
C:\psychtool\AnimalDB\AnimalDB\NonAnimall\MediumBody\Mda_gre163.jpg,NonAnimall,MediumBody,3,4,NonAnimall,5,1.0047320000001,1.11945429999992,1
C:\psychtool\AnimalDB\AnimalDB\NonAnimall\MediumBody\Mda_urb324.jpg,NonAnimall,MediumBody,3,5,NonAnimall,5,1.05764220000015,1.17252350000012,1
C:\psychtool\AnimalDB\AnimalDB\Animall\Head\H_N173097.jpg,Animall,Head,3,6,Animall,5,0.716387899999972,0.831239500000038,1
C:\psychtool\AnimalDB\AnimalDB\NonAnimall\CloseBody\Bda_room28.jpg,NonAnimall,CloseBody,3,7,NonAnimall,3,1.0422638,1.15739009999993,1
C:\psychtool\AnimalDB\AnimalDB\Animall\CloseBody\B_N49023.jpg,Animall,CloseBody,3,8,Animall,5,0.607285000000047,0.722377900000083,1
C:\psychtool\AnimalDB\AnimalDB\Animall\MediumBody\M_N253091.jpg,Animall,MediumBody,3,9,Animall,5,0.939940799999931,1.05504350000001,1
C:\psychtool\AnimalDB\AnimalDB\NonAnimall\MediumBody\Mda_art450.jpg,NonAnimall,MediumBody,3,10,NonAnimall,5,0.792165300000079,0.907040499999994,1
C:\psychtool\AnimalDB\AnimalDB\NonAnimall\FarBody\Fda_art36.jpg,NonAnimall,FarBody,3,11,NonAnimall,5,0.893393600000081,1.0114367000001,1
C:\psychtool\AnimalDB\AnimalDB\Animall\CloseBody\B_N43027.jpg,Animall,CloseBody,3,12,Animall,5,0.628247200000033,0.743645600000036,1
C:\psychtool\AnimalDB\AnimalDB\NonAnimall\MediumBody\Mda_art1312.jpg,NonAnimall,MediumBody,3,13,NonAnimall,4,1.02700279999999,1.14205130000005,1
C:\psychtool\AnimalDB\AnimalDB\Animall\CloseBody\B_N103008.jpg,Animall,CloseBody,3,14,Animall,5,0.944100200000094,1.05899939999995,1
C:\psychtool\AnimalDB\AnimalDB\NonAnimall\Head\Hda_obj394.jpg,NonAnimall,Head,3,15,Animall,2,1.63421440000002,1.75064550000002,0
C:\psychtool\AnimalDB\AnimalDB\Animall\FarBody\F_N130083.jpg,Animall,FarBody,3,16,Animall,3,1.23480459999996,1.34975989999998,1
C:\psychtool\AnimalDB\AnimalDB\Animall\CloseBody\B_N52033.jpg,Animall,CloseBody,3,17,Animall,5,0.933952299999874,1.04888239999991,1
C:\psychtool\AnimalDB\AnimalDB\NonAnimall\MediumBody\Mda_arnat105.jpg,NonAnimall,MediumBody,3,18,NonAnimall,5,1.20521880000001,1.32009010000002,1
C:\psychtool\AnimalDB\AnimalDB\Animall\Head\H_N134015.jpg,Animall,Head,3,19,Animall,5,1.22315489999983,1.33809620000011,1
C:\psychtool\AnimalDB\AnimalDB\Animall\CloseBody\B_N112084.jpg,Animall,CloseBody,3,20,Animall,5,0.384986499999968,0.500122400000009,1
C:\psychtool\AnimalDB\AnimalDB\NonAnimall\FarBody\Fda_art1204.jpg,NonAnimall,FarBody,3,21,NonAnimall,3,1.0762486000001,1.19112799999994,1
C:\psychtool\AnimalDB\AnimalDB\NonAnimall\CloseBody\Bda_room23.jpg,NonAnimall,CloseBody,3,22,NonAnimall,5,1.11243209999998,1.22756520000007,1
C:\psychtool\AnimalDB\AnimalDB\NonAnimall\CloseBody\Bda_enc67.jpg,NonAnimall,CloseBody,3,23,NonAnimall,5,1.19734999999991,1.31247439999993,1
C:\psychtool\AnimalDB\AnimalDB\Animall\CloseBody\B_N827019.jpg,Animall,CloseBody,3,24,Animall,5,0.709151199999951,0.824065799999971,1
C:\psychtool\AnimalDB\AnimalDB\Animall\FarBody\F_N77022.jpg,Animall,FarBody,3,25,Animall,5,0.758723299999929,0.873771100000113,1
C:\psychtool\AnimalDB\AnimalDB\Animall\MediumBody\M_N415038.jpg,Animall,MediumBody,3,26,Animall,5,0.993682500000205,1.10875440000018,1
C:\psychtool\AnimalDB\AnimalDB\Animall\Head\H_N134043.jpg,Animall,Head,3,27,Animall,5,0.808672500000057,0.923748299999943,1
C:\psychtool\AnimalDB\AnimalDB\Animall\MediumBody\M_N314056.jpg,Animall,MediumBody,3,28,Animall,5,0.672060900000133,0.787208999999848,1
C:\psychtool\AnimalDB\AnimalDB\Animall\MediumBody\M_N109000.jpg,Animall,MediumBody,3,29,Animall,5,0.776367599999958,0.891550199999983,1
C:\psychtool\AnimalDB\AnimalDB\NonAnimall\CloseBody\Bda_int30.jpg,NonAnimall,CloseBody,3,30,NonAnimall,5,0.858150700000124,0.973131499999909,1
C:\psychtool\AnimalDB\AnimalDB\NonAnimall\CloseBody\Bda_art671.jpg,NonAnimall,CloseBody,3,31,NonAnimall,5,0.877230000000054,0.992292000000134,1
C:\psychtool\AnimalDB\AnimalDB\Animall\FarBody\F_N106016.jpg,Animall,FarBody,3,32,Animall,5,0.800037599999996,0.915113900000051,1
C:\psychtool\AnimalDB\AnimalDB\NonAnimall\FarBody\Fda_art1180.jpg,NonAnimall,FarBody,3,33,Animall,5,0.730768699999999,0.845831299999872,0
C:\psychtool\AnimalDB\AnimalDB\NonAnimall\MediumBody\Mda_enc30.jpg,NonAnimall,MediumBody,3,34,NonAnimall,4,1.11323720000019,1.22829699999988,1
C:\psychtool\AnimalDB\AnimalDB\Animall\MediumBody\M_N112005.jpg,Animall,MediumBody,3,35,Animall,5,0.661872199999834,0.776874200000066,1
C:\psychtool\AnimalDB\AnimalDB\NonAnimall\Head\Hda_obj87.jpg,NonAnimall,Head,3,36,Animall,5,0.924865700000055,1.03994239999997,0
C:\psychtool\AnimalDB\AnimalDB\Animall\FarBody\F_N16063.jpg,Animall,FarBody,3,37,Animall,5,1.06520380000006,1.18031429999996,1
C:\psychtool\AnimalDB\AnimalDB\NonAnimall\Head\Hda_obj99.jpg,NonAnimall,Head,3,38,NonAnimall,5,0.785051000000067,0.900888699999996,1
C:\psychtool\AnimalDB\AnimalDB\NonAnimall\FarBody\Fda_art1249.jpg,NonAnimall,FarBody,3,39,NonAnimall,5,1.02828649999992,1.14341590000004,1
C:\psychtool\AnimalDB\AnimalDB\Animall\CloseBody\B_N112094.jpg,Animall,CloseBody,3,40,Animall,5,0.631661899999926,0.746780299999955,1
C:\psychtool\AnimalDB\AnimalDB\NonAnimall\Head\Hda_obj90.jpg,NonAnimall,Head,3,41,NonAnimall,3,1.07093329999998,1.18598429999997,1
C:\psychtool\AnimalDB\AnimalDB\NonAnimall\Head\Hda_obj1.jpg,NonAnimall,Head,3,42,Animall,5,0.767110900000034,0.88211420000016,0
C:\psychtool\AnimalDB\AnimalDB\Animall\FarBody\F_N77039.jpg,Animall,FarBody,3,43,Animall,5,0.805007600000181,0.920073499999944,1
C:\psychtool\AnimalDB\AnimalDB\Animall\Head\H_N826076.jpg,Animall,Head,3,44,Animall,5,0.458778900000198,0.573977399999876,1
C:\psychtool\AnimalDB\AnimalDB\NonAnimall\FarBody\Fda_art560.jpg,NonAnimall,FarBody,3,45,NonAnimall,5,1.16993339999999,1.28493900000012,1
C:\psychtool\AnimalDB\AnimalDB\Animall\CloseBody\B_N134097.jpg,Animall,CloseBody,3,46,Animall,5,0.766587200000004,0.881553600000188,1
C:\psychtool\AnimalDB\AnimalDB\Animall\MediumBody\M_N168046.jpg,Animall,MediumBody,3,47,Animall,5,0.624922199999901,0.739807900000187,1
C:\psychtool\AnimalDB\AnimalDB\Animall\FarBody\F_ani42.jpg,Animall,FarBody,3,48,Animall,5,0.743146000000024,0.858133799999905,1
C:\psychtool\AnimalDB\AnimalDB\NonAnimall\MediumBody\Mda_art1084.jpg,NonAnimall,MediumBody,3,49,NonAnimall,5,0.817003899999918,0.93187799999987,1
C:\psychtool\AnimalDB\AnimalDB\NonAnimall\FarBody\Fda_art1470.jpg,NonAnimall,FarBody,3,50,NonAnimall,5,0.927171599999838,1.04219660000012,1
C:\psychtool\AnimalDB\AnimalDB\NonAnimall\FarBody\Fda_A223024.jpg,NonAnimall,FarBody,3,51,NonAnimall,5,0.874374400000079,0.989400299999943,1
C:\psychtool\AnimalDB\AnimalDB\NonAnimall\MediumBody\Mda_art600.jpg,NonAnimall,MediumBody,3,52,NonAnimall,5,0.800975600000129,0.91604970000003,1
C:\psychtool\AnimalDB\AnimalDB\NonAnimall\MediumBody\Mda_city21.jpg,NonAnimall,MediumBody,3,53,NonAnimall,5,0.574810899999875,0.690015499999845,1
C:\psychtool\AnimalDB\AnimalDB\NonAnimall\MediumBody\Mda_urb902.jpg,NonAnimall,MediumBody,3,54,NonAnimall,5,0.425075699999979,0.540055200000097,1
C:\psychtool\AnimalDB\AnimalDB\NonAnimall\FarBody\Fda_city49.jpg,NonAnimall,FarBody,3,55,NonAnimall,5,0.397690699999885,0.512727899999845,1
C:\psychtool\AnimalDB\AnimalDB\NonAnimall\CloseBody\Bda_art1147.jpg,NonAnimall,CloseBody,3,56,NonAnimall,5,0.367824400000018,0.482805800000051,1
C:\psychtool\AnimalDB\AnimalDB\Animall\CloseBody\B_N108006.jpg,Animall,CloseBody,3,57,Animall,5,0.992714999999862,1.10793899999999,1
C:\psychtool\AnimalDB\AnimalDB\Animall\Head\H_N707021.jpg,Animall,Head,3,58,Animall,5,0.583102300000064,0.698061699999926,1
C:\psychtool\AnimalDB\AnimalDB\Animall\Head\H_N123022.jpg,Animall,Head,3,59,Animall,5,0.596284700000069,0.711215999999922,1
C:\psychtool\AnimalDB\AnimalDB\NonAnimall\FarBody\Fda_urb404.jpg,NonAnimall,FarBody,3,60,NonAnimall,3,1.04658310000013,1.16154780000011,1
C:\psychtool\AnimalDB\AnimalDB\Animall\CloseBody\B_N49001.jpg,Animall,CloseBody,3,61,Animall,5,0.648244799999929,0.763256599999977,1
C:\psychtool\AnimalDB\AnimalDB\Animall\FarBody\F_N828023.jpg,Animall,FarBody,3,62,Animall,5,0.606849799999964,0.722174700000096,1
C:\psychtool\AnimalDB\AnimalDB\Animall\Head\H_N471006.jpg,Animall,Head,3,63,Animall,5,0.432594699999981,0.547636499999953,1
C:\psychtool\AnimalDB\AnimalDB\Animall\FarBody\F_land764.jpg,Animall,FarBody,3,64,Animall,5,0.521957600000178,0.637059200000067,1
C:\psychtool\AnimalDB\AnimalDB\NonAnimall\CloseBody\Bda_room178.jpg,NonAnimall,CloseBody,3,65,Animall,3,0.908392700000149,1.02340939999999,0
C:\psychtool\AnimalDB\AnimalDB\NonAnimall\MediumBody\Mda_archi215.jpg,NonAnimall,MediumBody,3,66,NonAnimall,5,0.800728100000015,0.915548700000045,1
C:\psychtool\AnimalDB\AnimalDB\Animall\FarBody\F_N42035.jpg,Animall,FarBody,3,67,Animall,4,1.27804199999991,1.3929642999999,1
C:\psychtool\AnimalDB\AnimalDB\NonAnimall\CloseBody\Bda_room454.jpg,NonAnimall,CloseBody,3,68,NonAnimall,5,0.930575899999894,1.04546610000011,1
C:\psychtool\AnimalDB\AnimalDB\NonAnimall\CloseBody\Bda_room141.jpg,NonAnimall,CloseBody,3,69,NonAnimall,5,0.795499700000164,0.910486400000082,1
C:\psychtool\AnimalDB\AnimalDB\Animall\FarBody\F_N77038.jpg,Animall,FarBody,3,70,Animall,5,0.677283700000089,0.792273700000123,1
C:\psychtool\AnimalDB\AnimalDB\NonAnimall\FarBody\Fda_A805085.jpg,NonAnimall,FarBody,3,71,NonAnimall,3,1.05016890000002,1.16498019999995,1
C:\psychtool\AnimalDB\AnimalDB\NonAnimall\MediumBody\Mda_art843.jpg,NonAnimall,MediumBody,3,72,NonAnimall,4,0.939576199999919,1.05460369999992,1
C:\psychtool\AnimalDB\AnimalDB\Animall\Head\H_N485037.jpg,Animall,Head,3,73,Animall,5,0.601327699999956,0.716821299999992,1
C:\psychtool\AnimalDB\AnimalDB\Animall\CloseBody\B_N828067.jpg,Animall,CloseBody,3,74,Animall,5,0.641402199999902,0.756389300000137,1
C:\psychtool\AnimalDB\AnimalDB\NonAnimall\FarBody\Fda_A803044.jpg,NonAnimall,FarBody,3,75,NonAnimall,5,1.02766610000003,1.14291939999998,1
C:\psychtool\AnimalDB\AnimalDB\NonAnimall\CloseBody\Bda_int110.jpg,NonAnimall,CloseBody,3,76,Animall,5,1.11807780000004,1.23388799999998,0
C:\psychtool\AnimalDB\AnimalDB\Animall\FarBody\F_ani14.jpg,Animall,FarBody,3,77,Animall,5,0.661332500000071,0.776543799999899,1
C:\psychtool\AnimalDB\AnimalDB\NonAnimall\Head\Hda_obj76.jpg,NonAnimall,Head,3,78,Animall,4,0.830069699999967,0.945215899999994,0
C:\psychtool\AnimalDB\AnimalDB\Animall\CloseBody\B_N77033.jpg,Animall,CloseBody,3,79,Animall,5,0.698204900000064,0.813132700000097,1
C:\psychtool\AnimalDB\AnimalDB\Animall\MediumBody\M_N110046.jpg,Animall,MediumBody,3,80,Animall,5,0.622332400000005,0.737288900000067,1
C:\psychtool\AnimalDB\AnimalDB\NonAnimall\MediumBody\Mda_par104.jpg,NonAnimall,MediumBody,3,81,NonAnimall,5,1.77640479999991,0.925059800000099,1
C:\psychtool\AnimalDB\AnimalDB\Animall\FarBody\F_N43036.jpg,Animall,FarBody,3,82,Animall,5,0.568342999999913,0.684823800000004,1
C:\psychtool\AnimalDB\AnimalDB\Animall\Head\H_N123009.jpg,Animall,Head,3,83,Animall,5,0.548909999999978,0.663984699999901,1
C:\psychtool\AnimalDB\AnimalDB\NonAnimall\FarBody\Fda_art1469.jpg,NonAnimall,FarBody,3,84,Animall,5,0.75453709999988,0.86937469999998,0
C:\psychtool\AnimalDB\AnimalDB\NonAnimall\FarBody\Fda_gre536.jpg,NonAnimall,FarBody,3,85,NonAnimall,3,1.04144130000009,1.15650609999989,1
C:\psychtool\AnimalDB\AnimalDB\NonAnimall\Head\Hda_obj172.jpg,NonAnimall,Head,3,86,NonAnimall,5,0.969441200000119,1.08455429999981,1
C:\psychtool\AnimalDB\AnimalDB\Animall\CloseBody\B_N826081.jpg,Animall,CloseBody,3,87,Animall,5,0.744367400000101,0.85948170000006,1
C:\psychtool\AnimalDB\AnimalDB\Animall\Head\H_N130033.jpg,Animall,Head,3,88,Animall,5,0.566581900000074,0.681662999999844,1
C:\psychtool\AnimalDB\AnimalDB\NonAnimall\FarBody\Fda_city14.jpg,NonAnimall,FarBody,3,89,NonAnimall,5,0.942271699999992,1.05734819999998,1
C:\psychtool\AnimalDB\AnimalDB\NonAnimall\Head\Hda_obj59.jpg,NonAnimall,Head,3,90,Animall,3,0.96267069999999,1.07758830000012,0
C:\psychtool\AnimalDB\AnimalDB\NonAnimall\FarBody\Fda_A517086.jpg,NonAnimall,FarBody,3,91,NonAnimall,5,0.71333340000001,0.828343299999915,1
C:\psychtool\AnimalDB\AnimalDB\NonAnimall\FarBody\Fda_urb128.jpg,NonAnimall,FarBody,3,92,NonAnimall,5,1.07358139999997,1.18855570000005,1
C:\psychtool\AnimalDB\AnimalDB\Animall\MediumBody\M_N326090.jpg,Animall,MediumBody,3,93,Animall,5,0.594318899999962,0.709456000000046,1
C:\psychtool\AnimalDB\AnimalDB\NonAnimall\Head\Hda_obj296.jpg,NonAnimall,Head,3,94,Animall,5,0.660569399999986,0.775499500000024,0
C:\psychtool\AnimalDB\AnimalDB\NonAnimall\CloseBody\Bda_art921.jpg,NonAnimall,CloseBody,3,95,Animall,2,1.07579039999996,1.19091099999991,0
C:\psychtool\AnimalDB\AnimalDB\NonAnimall\CloseBody\Bda_art923.jpg,NonAnimall,CloseBody,3,96,NonAnimall,5,1.16298470000015,1.27799340000001,1
C:\psychtool\AnimalDB\AnimalDB\Animall\MediumBody\M_N130060.jpg,Animall,MediumBody,3,97,Animall,5,0.618445500000007,0.733487699999841,1
C:\psychtool\AnimalDB\AnimalDB\Animall\CloseBody\B_N112079.jpg,Animall,CloseBody,3,98,Animall,5,0.615858399999979,0.730915399999958,1
C:\psychtool\AnimalDB\AnimalDB\Animall\Head\H_N707064.jpg,Animall,Head,3,99,Animall,5,1.05190040000002,0.784582700000101,1
C:\psychtool\AnimalDB\AnimalDB\NonAnimall\CloseBody\Bda_int46.jpg,NonAnimall,CloseBody,3,100,NonAnimall,5,1.0118058999999,1.12706580000008,1
C:\psychtool\AnimalDB\AnimalDB\Animall\FarBody\F_N104022.jpg,Animall,FarBody,3,101,Animall,5,0.824264500000027,0.939370599999847,1
C:\psychtool\AnimalDB\AnimalDB\NonAnimall\CloseBody\Bda_art1171.jpg,NonAnimall,CloseBody,3,102,NonAnimall,5,0.727229400000169,0.842262299999902,1
C:\psychtool\AnimalDB\AnimalDB\Animall\FarBody\F_N105005.jpg,Animall,FarBody,3,103,Animall,5,0.701109899999892,0.817771499999935,1
C:\psychtool\AnimalDB\AnimalDB\NonAnimall\Head\Hdn_objn39.jpg,NonAnimall,Head,3,104,Animall,5,0.701527299999952,0.81772090000004,0
C:\psychtool\AnimalDB\AnimalDB\NonAnimall\FarBody\Fda_A804076.jpg,NonAnimall,FarBody,3,105,NonAnimall,5,0.742616399999861,0.857797799999844,1
C:\psychtool\AnimalDB\AnimalDB\Animall\MediumBody\M_N136020.jpg,Animall,MediumBody,3,106,Animall,5,0.708555400000023,0.823541499999919,1
C:\psychtool\AnimalDB\AnimalDB\NonAnimall\FarBody\Fda_art246.jpg,NonAnimall,FarBody,3,107,NonAnimall,3,0.79445469999996,0.9096262999999,1
C:\psychtool\AnimalDB\AnimalDB\Animall\FarBody\F_N107065.jpg,Animall,FarBody,3,108,Animall,5,0.968223800000032,1.08444910000003,1
C:\psychtool\AnimalDB\AnimalDB\Animall\CloseBody\B_N42019.jpg,Animall,CloseBody,3,109,Animall,5,0.811096600000155,0.926064900000029,1
C:\psychtool\AnimalDB\AnimalDB\NonAnimall\MediumBody\Mda_hous47.jpg,NonAnimall,MediumBody,3,110,NonAnimall,5,0.695494000000053,0.810512099999869,1
C:\psychtool\AnimalDB\AnimalDB\Animall\Head\H_N825030.jpg,Animall,Head,3,111,Animall,5,0.644891299999927,0.759875199999897,1
C:\psychtool\AnimalDB\AnimalDB\NonAnimall\MediumBody\Mda_archi327.jpg,NonAnimall,MediumBody,3,112,Animall,2,1.42640810000012,1.54130420000001,0
C:\psychtool\AnimalDB\AnimalDB\NonAnimall\CloseBody\Bda_art623.jpg,NonAnimall,CloseBody,3,113,NonAnimall,4,0.857595400000037,0.972687899999983,1
C:\psychtool\AnimalDB\AnimalDB\NonAnimall\FarBody\Fda_obj230.jpg,NonAnimall,FarBody,3,114,NonAnimall,5,0.919695400000137,1.0346990999999,1
C:\psychtool\AnimalDB\AnimalDB\NonAnimall\FarBody\Fda_art1535.jpg,NonAnimall,FarBody,3,115,NonAnimall,3,0.979598499999838,1.09459719999995,1
C:\psychtool\AnimalDB\AnimalDB\NonAnimall\Head\Hda_obj95.jpg,NonAnimall,Head,3,116,Animall,3,1.25364760000002,1.36862680000013,0
C:\psychtool\AnimalDB\AnimalDB\Animall\CloseBody\B_N160037.jpg,Animall,CloseBody,3,117,Animall,5,2.07838100000004,1.1105,1
C:\psychtool\AnimalDB\AnimalDB\Animall\Head\H_N427068.jpg,Animall,Head,3,118,Animall,5,0.888200000000097,1.00310500000001,1
C:\psychtool\AnimalDB\AnimalDB\Animall\Head\H_N659022.jpg,Animall,Head,3,119,Animall,5,0.745652599999858,0.860557299999982,1
C:\psychtool\AnimalDB\AnimalDB\NonAnimall\Head\Hda_obj81.jpg,NonAnimall,Head,3,120,Animall,5,0.696927500000129,0.811904499999855,0
C:\psychtool\AnimalDB\AnimalDB\NonAnimall\MediumBody\Mda_urb447.jpg,NonAnimall,MediumBody,4,1,NonAnimall,5,1.06792440000004,1.17965229999982,1
C:\psychtool\AnimalDB\AnimalDB\Animall\MediumBody\M_N289096.jpg,Animall,MediumBody,4,2,Animall,5,0.94102410000005,1.05390319999992,1
C:\psychtool\AnimalDB\AnimalDB\Animall\CloseBody\B_N42067.jpg,Animall,CloseBody,4,3,Animall,5,1.12326779999989,1.23612250000019,1
C:\psychtool\AnimalDB\AnimalDB\NonAnimall\FarBody\Fda_urb342.jpg,NonAnimall,FarBody,4,4,NonAnimall,5,0.932775600000014,1.04536880000001,1
C:\psychtool\AnimalDB\AnimalDB\Animall\Head\H_TV646.jpg,Animall,Head,4,5,Animall,5,0.676086700000042,0.791070600000012,1
C:\psychtool\AnimalDB\AnimalDB\Animall\Head\H_N471000.jpg,Animall,Head,4,6,Animall,5,0.667421200000035,0.782373099999859,1
C:\psychtool\AnimalDB\AnimalDB\Animall\CloseBody\B_N134010.jpg,Animall,CloseBody,4,7,Animall,5,0.667925100000048,0.784326500000134,1
C:\psychtool\AnimalDB\AnimalDB\Animall\CloseBody\B_N77078.jpg,Animall,CloseBody,4,8,Animall,5,0.601641799999925,0.717686599999979,1
C:\psychtool\AnimalDB\AnimalDB\Animall\CloseBody\B_N70015.jpg,Animall,CloseBody,4,9,Animall,5,0.665844900000138,0.78106270000012,1
C:\psychtool\AnimalDB\AnimalDB\Animall\CloseBody\B_N828097.jpg,Animall,CloseBody,4,10,Animall,5,0.730702600000086,0.845764000000145,1
C:\psychtool\AnimalDB\AnimalDB\NonAnimall\FarBody\Fda_osun36.jpg,NonAnimall,FarBody,4,11,NonAnimall,4,0.881068400000004,0.995976299999938,1
C:\psychtool\AnimalDB\AnimalDB\Animall\Head\H_N160016.jpg,Animall,Head,4,12,Animall,5,0.665652500000078,0.780570300000136,1
C:\psychtool\AnimalDB\AnimalDB\Animall\CloseBody\B_N109045.jpg,Animall,CloseBody,4,13,Animall,5,0.677352100000007,0.792328199999929,1
C:\psychtool\AnimalDB\AnimalDB\NonAnimall\MediumBody\Mda_art509.jpg,NonAnimall,MediumBody,4,14,NonAnimall,5,0.8183211999999,0.934464700000035,1
C:\psychtool\AnimalDB\AnimalDB\NonAnimall\MediumBody\Mda_urb562.jpg,NonAnimall,MediumBody,4,15,NonAnimall,3,0.847494300000108,0.962508099999923,1
C:\psychtool\AnimalDB\AnimalDB\NonAnimall\Head\Hda_int453.jpg,NonAnimall,Head,4,16,Animall,5,0.773321299999907,0.888179199999968,0
C:\psychtool\AnimalDB\AnimalDB\Animall\CloseBody\B_N160088.jpg,Animall,CloseBody,4,17,Animall,5,0.59118310000008,0.706242800000155,1
C:\psychtool\AnimalDB\AnimalDB\Animall\CloseBody\B_ani51.jpg,Animall,CloseBody,4,18,Animall,5,0.560441699999956,0.675382499999841,1
C:\psychtool\AnimalDB\AnimalDB\Animall\CloseBody\B_N134098.jpg,Animall,CloseBody,4,19,Animall,5,0.562870700000076,0.677887900000087,1
C:\psychtool\AnimalDB\AnimalDB\NonAnimall\CloseBody\Bda_int753.jpg,NonAnimall,CloseBody,4,20,NonAnimall,4,1.17002899999989,1.28510810000012,1
C:\psychtool\AnimalDB\AnimalDB\Animall\CloseBody\B_N43082.jpg,Animall,CloseBody,4,21,Animall,5,0.464478500000041,0.579434100000071,1
C:\psychtool\AnimalDB\AnimalDB\Animall\FarBody\F_N43061.jpg,Animall,FarBody,4,22,Animall,5,0.851045500000055,0.965935099999797,1
C:\psychtool\AnimalDB\AnimalDB\Animall\CloseBody\B_N209044.jpg,Animall,CloseBody,4,23,Animall,5,0.665404200000012,0.78042030000006,1
C:\psychtool\AnimalDB\AnimalDB\NonAnimall\CloseBody\Bda_art1288.jpg,NonAnimall,CloseBody,4,24,Animall,5,0.762487900000224,0.877522799999952,0
C:\psychtool\AnimalDB\AnimalDB\Animall\CloseBody\B_N168089.jpg,Animall,CloseBody,4,25,Animall,5,0.694376799999873,0.809405799999922,1
C:\psychtool\AnimalDB\AnimalDB\NonAnimall\Head\Hda_obj418.jpg,NonAnimall,Head,4,26,NonAnimall,3,1.0057448,1.12097130000006,1
C:\psychtool\AnimalDB\AnimalDB\Animall\CloseBody\B_N106014.jpg,Animall,CloseBody,4,27,Animall,5,0.651021700000001,0.766227799999797,1
C:\psychtool\AnimalDB\AnimalDB\NonAnimall\Head\Hda_obj71.jpg,NonAnimall,Head,4,28,Animall,5,0.86224859999993,0.977407200000016,0
C:\psychtool\AnimalDB\AnimalDB\NonAnimall\Head\Hda_obj414.jpg,NonAnimall,Head,4,29,NonAnimall,5,0.778411799999958,0.893451000000141,1
C:\psychtool\AnimalDB\AnimalDB\Animall\CloseBody\B_N168078.jpg,Animall,CloseBody,4,30,Animall,5,0.688572699999895,0.803687699999955,1
C:\psychtool\AnimalDB\AnimalDB\Animall\MediumBody\M_N268045.jpg,Animall,MediumBody,4,31,Animall,5,0.894286599999987,1.00933299999997,1
C:\psychtool\AnimalDB\AnimalDB\Animall\CloseBody\B_N49021.jpg,Animall,CloseBody,4,32,Animall,4,0.667859299999918,0.782844999999952,1
C:\psychtool\AnimalDB\AnimalDB\Animall\FarBody\F_N130009.jpg,Animall,FarBody,4,33,Animall,5,0.766708599999902,0.881590799999913,1
C:\psychtool\AnimalDB\AnimalDB\Animall\CloseBody\B_N109005.jpg,Animall,CloseBody,4,34,Animall,5,0.60426039999993,0.719758299999967,1
C:\psychtool\AnimalDB\AnimalDB\Animall\FarBody\F_N77005.jpg,Animall,FarBody,4,35,Animall,5,0.579037599999992,0.694126600000118,1
C:\psychtool\AnimalDB\AnimalDB\NonAnimall\Head\Hda_obj390.jpg,NonAnimall,Head,4,36,NonAnimall,4,0.826982499999986,0.941971999999851,1
C:\psychtool\AnimalDB\AnimalDB\NonAnimall\MediumBody\Mda_art1528.jpg,NonAnimall,MediumBody,4,37,Animall,5,0.70863959999997,0.823636500000021,0
C:\psychtool\AnimalDB\AnimalDB\NonAnimall\Head\Hdn_objn36.jpg,NonAnimall,Head,4,38,Animall,5,0.563716099999965,0.679518200000075,0
C:\psychtool\AnimalDB\AnimalDB\NonAnimall\FarBody\Fda_A277094.jpg,NonAnimall,FarBody,4,39,NonAnimall,5,1.05777890000013,1.17294390000006,1
C:\psychtool\AnimalDB\AnimalDB\Animall\Head\H_N802037.jpg,Animall,Head,4,40,Animall,5,0.773803399999906,0.888671799999884,1
C:\psychtool\AnimalDB\AnimalDB\NonAnimall\MediumBody\Mda_gre329.jpg,NonAnimall,MediumBody,4,41,Animall,3,1.17197239999996,1.28684930000009,0
C:\psychtool\AnimalDB\AnimalDB\Animall\MediumBody\M_N197092.jpg,Animall,MediumBody,4,42,Animall,5,0.501281300000073,0.616878999999926,1
C:\psychtool\AnimalDB\AnimalDB\NonAnimall\FarBody\Fda_A683031.jpg,NonAnimall,FarBody,4,43,NonAnimall,5,1.15118719999987,1.26706130000002,1
C:\psychtool\AnimalDB\AnimalDB\NonAnimall\MediumBody\Mda_archi303.jpg,NonAnimall,MediumBody,4,44,Animall,5,0.976992099999961,1.0918544000001,0
C:\psychtool\AnimalDB\AnimalDB\Animall\MediumBody\M_N168014.jpg,Animall,MediumBody,4,45,Animall,5,0.67924660000017,0.794250599999941,1
C:\psychtool\AnimalDB\AnimalDB\NonAnimall\Head\Hda_obj88.jpg,NonAnimall,Head,4,46,NonAnimall,3,0.905274299999974,1.02054309999994,1
C:\psychtool\AnimalDB\AnimalDB\Animall\Head\H_N247049.jpg,Animall,Head,4,47,Animall,5,0.513366799999858,0.62849499999993,1
C:\psychtool\AnimalDB\AnimalDB\NonAnimall\FarBody\Fda_urb306.jpg,NonAnimall,FarBody,4,48,NonAnimall,2,1.73471530000006,1.84961840000005,1
C:\psychtool\AnimalDB\AnimalDB\Animall\CloseBody\B_N123059.jpg,Animall,CloseBody,4,49,Animall,5,1.01432080000018,1.12931370000001,1
C:\psychtool\AnimalDB\AnimalDB\Animall\Head\H_N247010.jpg,Animall,Head,4,50,Animall,5,1.25500929999998,1.37003679999998,1
C:\psychtool\AnimalDB\AnimalDB\Animall\FarBody\F_N42093.jpg,Animall,FarBody,4,51,Animall,2,1.47183719999998,1.58710919999999,1
C:\psychtool\AnimalDB\AnimalDB\Animall\FarBody\F_N77077.jpg,Animall,FarBody,4,52,Animall,4,0.961797899999965,1.07676730000003,1
C:\psychtool\AnimalDB\AnimalDB\Animall\CloseBody\B_N77036.jpg,Animall,CloseBody,4,53,Animall,4,0.652332500000057,0.768681700000116,1
C:\psychtool\AnimalDB\AnimalDB\NonAnimall\CloseBody\Bda_art1256.jpg,NonAnimall,CloseBody,4,54,Animall,5,1.4122711,1.52729199999999,0
C:\psychtool\AnimalDB\AnimalDB\Animall\FarBody\F_N70040.jpg,Animall,FarBody,4,55,Animall,5,0.567818299999999,0.682856399999991,1
C:\psychtool\AnimalDB\AnimalDB\NonAnimall\Head\Hda_obj25.jpg,NonAnimall,Head,4,56,Animall,3,0.871413600000096,0.986391299999923,0
C:\psychtool\AnimalDB\AnimalDB\Animall\Head\H_N247033.jpg,Animall,Head,4,57,Animall,5,0.871433300000035,0.986585399999967,1
C:\psychtool\AnimalDB\AnimalDB\NonAnimall\CloseBody\Bda_art1067.jpg,NonAnimall,CloseBody,4,58,NonAnimall,3,1.17755299999999,1.29247739999983,1
C:\psychtool\AnimalDB\AnimalDB\Animall\FarBody\F_N105045.jpg,Animall,FarBody,4,59,Animall,5,0.915623799999821,1.03037560000007,1
C:\psychtool\AnimalDB\AnimalDB\Animall\Head\H_N815032.jpg,Animall,Head,4,60,Animall,5,0.616331199999877,0.731505299999981,1
C:\psychtool\AnimalDB\AnimalDB\Animall\Head\H_N160056.jpg,Animall,Head,4,61,Animall,5,0.578110799999877,0.693419100000028,1
C:\psychtool\AnimalDB\AnimalDB\Animall\MediumBody\M_N173002.jpg,Animall,MediumBody,4,62,Animall,5,0.694397299999991,0.809214399999973,1
C:\psychtool\AnimalDB\AnimalDB\Animall\FarBody\F_N77034.jpg,Animall,FarBody,4,63,Animall,5,0.639582000000019,0.754600299999993,1
C:\psychtool\AnimalDB\AnimalDB\NonAnimall\Head\Hda_obj433.jpg,NonAnimall,Head,4,64,Animall,5,0.700251600000001,0.815234799999871,0
C:\psychtool\AnimalDB\AnimalDB\NonAnimall\Head\Hda_obj144.jpg,NonAnimall,Head,4,65,Animall,3,1.14924410000003,1.26422539999999,0
C:\psychtool\AnimalDB\AnimalDB\Animall\Head\H_N408065.jpg,Animall,Head,4,66,Animall,2,1.77398549999998,1.88889270000004,1
C:\psychtool\AnimalDB\AnimalDB\NonAnimall\MediumBody\Mda_urb214.jpg,NonAnimall,MediumBody,4,67,NonAnimall,4,1.22389539999995,1.33888109999998,1
C:\psychtool\AnimalDB\AnimalDB\Animall\FarBody\F_N828047.jpg,Animall,FarBody,4,68,Animall,5,0.97608809999997,1.09105379999983,1
C:\psychtool\AnimalDB\AnimalDB\NonAnimall\FarBody\Fda_street63.jpg,NonAnimall,FarBody,4,69,Animall,5,0.518769699999893,0.635259799999858,0
C:\psychtool\AnimalDB\AnimalDB\Animall\Head\H_N247096.jpg,Animall,Head,4,70,Animall,5,0.62962460000017,0.74437069999999,1
C:\psychtool\AnimalDB\AnimalDB\Animall\MediumBody\M_N289045.jpg,Animall,MediumBody,4,71,Animall,5,0.655484300000126,0.770435299999917,1
C:\psychtool\AnimalDB\AnimalDB\Animall\FarBody\F_N43043.jpg,Animall,FarBody,4,72,Animall,5,0.921363400000018,1.03639750000002,1
C:\psychtool\AnimalDB\AnimalDB\Animall\FarBody\F_N43063.jpg,Animall,FarBody,4,73,Animall,5,0.595730599999797,0.710763699999916,1
C:\psychtool\AnimalDB\AnimalDB\Animall\FarBody\F_N105002.jpg,Animall,FarBody,4,74,Animall,5,1.06449510000016,1.17948079999996,1
C:\psychtool\AnimalDB\AnimalDB\NonAnimall\MediumBody\Mda_archi233.jpg,NonAnimall,MediumBody,4,75,NonAnimall,4,0.938215799999853,1.05321160000017,1
C:\psychtool\AnimalDB\AnimalDB\Animall\CloseBody\B_N112063.jpg,Animall,CloseBody,4,76,Animall,5,0.634913300000107,0.751465099999905,1
C:\psychtool\AnimalDB\AnimalDB\NonAnimall\MediumBody\Mda_art1665.jpg,NonAnimall,MediumBody,4,77,NonAnimall,3,1.05933260000006,1.17431460000012,1
C:\psychtool\AnimalDB\AnimalDB\Animall\FarBody\F_N130054.jpg,Animall,FarBody,4,78,Animall,5,0.616690199999994,0.731855799999948,1
C:\psychtool\AnimalDB\AnimalDB\NonAnimall\FarBody\Fda_arnat64.jpg,NonAnimall,FarBody,4,79,Animall,5,0.596780999999964,0.711935099999891,0
C:\psychtool\AnimalDB\AnimalDB\NonAnimall\CloseBody\Bda_art679.jpg,NonAnimall,CloseBody,4,80,NonAnimall,2,1.23787189999985,1.35283549999986,1
C:\psychtool\AnimalDB\AnimalDB\NonAnimall\Head\Hda_obj91.jpg,NonAnimall,Head,4,81,NonAnimall,4,1.34525719999988,1.46011130000011,1
C:\psychtool\AnimalDB\AnimalDB\NonAnimall\CloseBody\Bda_int211.jpg,NonAnimall,CloseBody,4,82,NonAnimall,4,0.91609399999993,1.0311564000001,1
C:\psychtool\AnimalDB\AnimalDB\NonAnimall\Head\Hda_obj74.jpg,NonAnimall,Head,4,83,NonAnimall,4,1.35522040000001,1.47024699999997,1
C:\psychtool\AnimalDB\AnimalDB\NonAnimall\MediumBody\Mda_hexp5.jpg,NonAnimall,MediumBody,4,84,NonAnimall,3,0.948719499999925,1.06381299999998,1
C:\psychtool\AnimalDB\AnimalDB\Animall\MediumBody\M_N109034.jpg,Animall,MediumBody,4,85,Animall,2,1.24486270000011,1.35995720000005,1
C:\psychtool\AnimalDB\AnimalDB\Animall\FarBody\F_N168008.jpg,Animall,FarBody,4,86,Animall,4,0.75386299999991,0.868780199999946,1
C:\psychtool\AnimalDB\AnimalDB\Animall\MediumBody\M_N110047.jpg,Animall,MediumBody,4,87,Animall,5,0.651655599999913,0.766638799999782,1
C:\psychtool\AnimalDB\AnimalDB\Animall\FarBody\F_N77072.jpg,Animall,FarBody,4,88,Animall,5,0.581094200000052,0.695979900000111,1
C:\psychtool\AnimalDB\AnimalDB\Animall\MediumBody\M_N268024.jpg,Animall,MediumBody,4,89,Animall,5,0.530886199999941,0.645780800000011,1
C:\psychtool\AnimalDB\AnimalDB\Animall\FarBody\F_N106023.jpg,Animall,FarBody,4,90,Animall,5,0.527341999999862,0.642487200000005,1
C:\psychtool\AnimalDB\AnimalDB\Animall\MediumBody\M_N136096.jpg,Animall,MediumBody,4,91,Animall,5,0.46235159999992,0.577248600000075,1
C:\psychtool\AnimalDB\AnimalDB\NonAnimall\MediumBody\Mda_art1680.jpg,NonAnimall,MediumBody,4,92,NonAnimall,2,1.1818968,1.29689550000012,1
C:\psychtool\AnimalDB\AnimalDB\NonAnimall\CloseBody\Bda_int767.jpg,NonAnimall,CloseBody,4,93,Animall,4,0.948996800000032,1.06400619999999,0
C:\psychtool\AnimalDB\AnimalDB\Animall\MediumBody\M_N109070.jpg,Animall,MediumBody,4,94,Animall,5,0.765053200000011,0.880154100000027,1
C:\psychtool\AnimalDB\AnimalDB\Animall\FarBody\F_N103058.jpg,Animall,FarBody,4,95,Animall,5,0.796433799999932,0.911505399999896,1
C:\psychtool\AnimalDB\AnimalDB\NonAnimall\FarBody\Fda_art358.jpg,NonAnimall,FarBody,4,96,NonAnimall,3,1.26565289999985,1.38060710000013,1
C:\psychtool\AnimalDB\AnimalDB\Animall\MediumBody\M_N173035.jpg,Animall,MediumBody,4,97,Animall,4,0.842306999999892,0.957085899999811,1
C:\psychtool\AnimalDB\AnimalDB\NonAnimall\Head\Hda_obj205.jpg,NonAnimall,Head,4,98,Animall,5,0.818164499999966,0.93421259999991,0
C:\psychtool\AnimalDB\AnimalDB\NonAnimall\CloseBody\Bda_art1193.jpg,NonAnimall,CloseBody,4,99,NonAnimall,3,0.888551700000107,1.00343530000009,1
C:\psychtool\AnimalDB\AnimalDB\Animall\CloseBody\B_N112087.jpg,Animall,CloseBody,4,100,Animall,5,0.807784100000163,0.922655999999961,1
C:\psychtool\AnimalDB\AnimalDB\Animall\MediumBody\M_N123057.jpg,Animall,MediumBody,4,101,Animall,5,0.693060800000012,0.808027600000059,1
C:\psychtool\AnimalDB\AnimalDB\Animall\Head\H_N136011.jpg,Animall,Head,4,102,Animall,5,0.57885680000004,0.693804100000079,1
C:\psychtool\AnimalDB\AnimalDB\Animall\FarBody\F_N43032.jpg,Animall,FarBody,4,103,Animall,1,1.15022339999996,1.26501280000002,1
C:\psychtool\AnimalDB\AnimalDB\NonAnimall\Head\Hda_obj111.jpg,NonAnimall,Head,4,104,Animall,5,0.722975199999837,0.837898300000006,0
C:\psychtool\AnimalDB\AnimalDB\Animall\Head\H_N247007.jpg,Animall,Head,4,105,Animall,5,0.793907300000001,0.909054499999911,1
C:\psychtool\AnimalDB\AnimalDB\NonAnimall\FarBody\Fda_city83.jpg,NonAnimall,FarBody,4,106,NonAnimall,3,0.871808300000112,0.986839200000077,1
C:\psychtool\AnimalDB\AnimalDB\Animall\FarBody\F_N130046.jpg,Animall,FarBody,4,107,Animall,5,0.57429419999994,0.689262300000109,1
C:\psychtool\AnimalDB\AnimalDB\Animall\FarBody\F_N77073.jpg,Animall,FarBody,4,108,Animall,3,0.85693480000009,0.971867599999996,1
C:\psychtool\AnimalDB\AnimalDB\Animall\FarBody\F_N16060.jpg,Animall,FarBody,4,109,Animall,5,1.08840860000009,1.20345899999984,1
C:\psychtool\AnimalDB\AnimalDB\NonAnimall\FarBody\Fda_art772.jpg,NonAnimall,FarBody,4,110,NonAnimall,3,1.04407679999986,1.15901359999998,1
C:\psychtool\AnimalDB\AnimalDB\Animall\FarBody\F_N828028.jpg,Animall,FarBody,4,111,Animall,5,0.717113099999779,0.832125299999916,1
C:\psychtool\AnimalDB\AnimalDB\NonAnimall\FarBody\Fda_art1317.jpg,NonAnimall,FarBody,4,112,NonAnimall,5,1.20139019999988,1.31763420000016,1
C:\psychtool\AnimalDB\AnimalDB\Animall\MediumBody\M_N253003.jpg,Animall,MediumBody,4,113,Animall,5,0.632925000000114,0.74797639999997,1
C:\psychtool\AnimalDB\AnimalDB\Animall\CloseBody\B_N110090.jpg,Animall,CloseBody,4,114,Animall,5,0.787822799999958,0.903052600000137,1
C:\psychtool\AnimalDB\AnimalDB\NonAnimall\FarBody\Fda_art32.jpg,NonAnimall,FarBody,4,115,NonAnimall,5,1.69199909999998,1.80700709999996,1
C:\psychtool\AnimalDB\AnimalDB\Animall\MediumBody\M_N326099.jpg,Animall,MediumBody,4,116,Animall,5,0.817820600000005,0.934419599999956,1
C:\psychtool\AnimalDB\AnimalDB\NonAnimall\FarBody\Fda_A805045.jpg,NonAnimall,FarBody,4,117,NonAnimall,5,0.816116699999839,0.93097849999981,1
C:\psychtool\AnimalDB\AnimalDB\NonAnimall\FarBody\Fda_art1684.jpg,NonAnimall,FarBody,4,118,NonAnimall,2,0.993330900000046,1.10832789999995,1
C:\psychtool\AnimalDB\AnimalDB\NonAnimall\FarBody\Fda_art462.jpg,NonAnimall,FarBody,4,119,NonAnimall,4,0.722026700000015,0.837001799999825,1
C:\psychtool\AnimalDB\AnimalDB\NonAnimall\CloseBody\Bda_art1168.jpg,NonAnimall,CloseBody,4,120,Animall,3,1.45512469999994,1.57013519999987,0
C:\psychtool\AnimalDB\AnimalDB\NonAnimall\CloseBody\Bda_gre607.jpg,NonAnimall,CloseBody,5,1,NonAnimall,2,1.14225529999999,1.25748399999998,1
C:\psychtool\AnimalDB\AnimalDB\NonAnimall\Head\Hda_room421.jpg,NonAnimall,Head,5,2,NonAnimall,4,0.816468099999838,0.931362499999977,1
C:\psychtool\AnimalDB\AnimalDB\NonAnimall\CloseBody\Bda_art673.jpg,NonAnimall,CloseBody,5,3,NonAnimall,4,0.749493799999982,0.864538000000039,1
C:\psychtool\AnimalDB\AnimalDB\Animall\CloseBody\B_N42028.jpg,Animall,CloseBody,5,4,Animall,5,1.15017079999984,1.26518220000003,1
C:\psychtool\AnimalDB\AnimalDB\Animall\CloseBody\B_N173071.jpg,Animall,CloseBody,5,5,Animall,5,0.725592499999948,0.840558200000032,1
C:\psychtool\AnimalDB\AnimalDB\Animall\FarBody\F_N106043.jpg,Animall,FarBody,5,6,Animall,5,1.1571563,1.27223509999999,1
C:\psychtool\AnimalDB\AnimalDB\NonAnimall\CloseBody\Bda_art1157.jpg,NonAnimall,CloseBody,5,7,NonAnimall,4,1.07749219999982,1.19246589999989,1
C:\psychtool\AnimalDB\AnimalDB\Animall\MediumBody\M_N130045.jpg,Animall,MediumBody,5,8,Animall,5,0.761297800000193,0.876449499999808,1
C:\psychtool\AnimalDB\AnimalDB\NonAnimall\Head\Hda_obj348.jpg,NonAnimall,Head,5,9,Animall,5,1.17027670000016,1.2853947000001,0
C:\psychtool\AnimalDB\AnimalDB\NonAnimall\Head\Hda_obj450.jpg,NonAnimall,Head,5,10,Animall,5,1.19702959999995,1.3119114000001,0
C:\psychtool\AnimalDB\AnimalDB\NonAnimall\Head\Hda_obj454.jpg,NonAnimall,Head,5,11,Animall,2,1.37889079999991,1.49386079999999,0
C:\psychtool\AnimalDB\AnimalDB\NonAnimall\FarBody\Fdn_sclos4.jpg,NonAnimall,FarBody,5,12,Animall,5,0.733176299999968,0.848018300000149,0
C:\psychtool\AnimalDB\AnimalDB\NonAnimall\CloseBody\Bda_room451.jpg,NonAnimall,CloseBody,5,13,NonAnimall,5,1.1515824999999,1.26717329999997,1
C:\psychtool\AnimalDB\AnimalDB\NonAnimall\CloseBody\Bda_art1079.jpg,NonAnimall,CloseBody,5,14,NonAnimall,4,0.972574799999848,1.08803949999992,1
C:\psychtool\AnimalDB\AnimalDB\NonAnimall\FarBody\Fda_A463036.jpg,NonAnimall,FarBody,5,15,NonAnimall,5,0.939394499999935,1.05417030000012,1
C:\psychtool\AnimalDB\AnimalDB\Animall\MediumBody\M_N574077.jpg,Animall,MediumBody,5,16,Animall,5,0.733325600000171,0.848381899999822,1
C:\psychtool\AnimalDB\AnimalDB\NonAnimall\Head\Hda_obj94.jpg,NonAnimall,Head,5,17,NonAnimall,5,1.13157030000002,1.2464229999996,1
C:\psychtool\AnimalDB\AnimalDB\Animall\Head\H_N427028.jpg,Animall,Head,5,18,Animall,5,0.65318840000009,0.768375200000264,1
C:\psychtool\AnimalDB\AnimalDB\Animall\MediumBody\M_N289038.jpg,Animall,MediumBody,5,19,Animall,5,0.504940299999816,0.620084499999848,1
C:\psychtool\AnimalDB\AnimalDB\NonAnimall\CloseBody\Bda_art685.jpg,NonAnimall,CloseBody,5,20,NonAnimall,3,1.06758089999994,1.18255630000021,1
C:\psychtool\AnimalDB\AnimalDB\NonAnimall\MediumBody\Mda_art438.jpg,NonAnimall,MediumBody,5,21,Animall,5,0.736650700000155,0.852269700000306,0
C:\psychtool\AnimalDB\AnimalDB\Animall\CloseBody\B_N123094.jpg,Animall,CloseBody,5,22,Animall,5,0.510359400000198,0.62523100000044,1
C:\psychtool\AnimalDB\AnimalDB\Animall\CloseBody\B_N77058.jpg,Animall,CloseBody,5,23,Animall,5,0.538930699999582,0.653982199999973,1
C:\psychtool\AnimalDB\AnimalDB\Animall\MediumBody\M_N136059.jpg,Animall,MediumBody,5,24,Animall,5,1.06098559999964,1.17599040000005,1
C:\psychtool\AnimalDB\AnimalDB\NonAnimall\MediumBody\Mda_art337.jpg,NonAnimall,MediumBody,5,25,NonAnimall,4,1.00571600000012,1.12080400000013,1
C:\psychtool\AnimalDB\AnimalDB\Animall\FarBody\F_N104037.jpg,Animall,FarBody,5,26,Animall,5,0.702949600000011,0.817819599999893,1
C:\psychtool\AnimalDB\AnimalDB\Animall\MediumBody\M_N130078.jpg,Animall,MediumBody,5,27,Animall,5,0.686976800000139,0.801882100000057,1
C:\psychtool\AnimalDB\AnimalDB\NonAnimall\CloseBody\Bda_room43.jpg,NonAnimall,CloseBody,5,28,Animall,2,1.09083830000009,1.20572100000027,0
C:\psychtool\AnimalDB\AnimalDB\Animall\FarBody\F_N106010.jpg,Animall,FarBody,5,29,Animall,5,0.582011800000146,0.697092700000212,1
C:\psychtool\AnimalDB\AnimalDB\Animall\FarBody\F_N130020.jpg,Animall,FarBody,5,30,Animall,5,0.818326900000102,0.933650999999827,1
C:\psychtool\AnimalDB\AnimalDB\Animall\CloseBody\B_N75034.jpg,Animall,CloseBody,5,31,Animall,5,0.784822100000383,0.900700799999868,1
C:\psychtool\AnimalDB\AnimalDB\NonAnimall\Head\Hda_obj65.jpg,NonAnimall,Head,5,32,NonAnimall,4,1.05428600000005,1.16909020000003,1
C:\psychtool\AnimalDB\AnimalDB\NonAnimall\CloseBody\Bda_art971.jpg,NonAnimall,CloseBody,5,33,NonAnimall,5,0.848985300000095,0.963779499999873,1
C:\psychtool\AnimalDB\AnimalDB\Animall\FarBody\F_N77071.jpg,Animall,FarBody,5,34,Animall,5,0.684450799999922,0.800418100000115,1
C:\psychtool\AnimalDB\AnimalDB\Animall\Head\H_N247091.jpg,Animall,Head,5,35,Animall,5,0.811011599999802,0.926034599999639,1
C:\psychtool\AnimalDB\AnimalDB\Animall\FarBody\F_N16064.jpg,Animall,FarBody,5,36,Animall,5,0.509933499999988,0.624905400000443,1
C:\psychtool\AnimalDB\AnimalDB\NonAnimall\CloseBody\Bda_art629.jpg,NonAnimall,CloseBody,5,37,NonAnimall,3,0.991504900000109,1.1065266999999,1
C:\psychtool\AnimalDB\AnimalDB\NonAnimall\MediumBody\Mda_urb384.jpg,NonAnimall,MediumBody,5,38,NonAnimall,4,0.87342340000032,0.988402399999813,1
C:\psychtool\AnimalDB\AnimalDB\Animall\Head\H_N458006.jpg,Animall,Head,5,39,Animall,5,0.523254100000031,0.638327699999991,1
C:\psychtool\AnimalDB\AnimalDB\Animall\CloseBody\B_N77079.jpg,Animall,CloseBody,5,40,Animall,5,0.641013900000416,0.75590609999972,1
C:\psychtool\AnimalDB\AnimalDB\Animall\MediumBody\M_N112057.jpg,Animall,MediumBody,5,41,Animall,5,0.705847799999901,0.820857199999864,1
C:\psychtool\AnimalDB\AnimalDB\NonAnimall\Head\Hda_int536.jpg,NonAnimall,Head,5,42,Animall,2,1.18423729999995,1.29921729999978,0
C:\psychtool\AnimalDB\AnimalDB\Animall\FarBody\F_N70087.jpg,Animall,FarBody,5,43,Animall,3,0.967953500000021,1.08301400000028,1
C:\psychtool\AnimalDB\AnimalDB\Animall\MediumBody\M_N289050.jpg,Animall,MediumBody,5,44,Animall,5,0.61249429999998,0.727432999999564,1
C:\psychtool\AnimalDB\AnimalDB\NonAnimall\CloseBody\Bda_art1155.jpg,NonAnimall,CloseBody,5,45,NonAnimall,4,0.943897799999831,1.05893920000017,1
C:\psychtool\AnimalDB\AnimalDB\NonAnimall\CloseBody\Bda_art1117.jpg,NonAnimall,CloseBody,5,46,NonAnimall,4,0.810489100000268,0.925531500000034,1
C:\psychtool\AnimalDB\AnimalDB\Animall\Head\H_N209040.jpg,Animall,Head,5,47,Animall,5,0.626340999999684,0.741325700000289,1
C:\psychtool\AnimalDB\AnimalDB\Animall\FarBody\F_N77002.jpg,Animall,FarBody,5,48,Animall,5,0.694346900000255,0.809355000000323,1
C:\psychtool\AnimalDB\AnimalDB\NonAnimall\CloseBody\Bda_room493.jpg,NonAnimall,CloseBody,5,49,Animall,3,0.932869599999776,1.04770880000024,0
C:\psychtool\AnimalDB\AnimalDB\Animall\FarBody\F_N77075.jpg,Animall,FarBody,5,50,Animall,3,1.22336809999979,1.33850299999995,1
C:\psychtool\AnimalDB\AnimalDB\NonAnimall\MediumBody\Mda_hous31.jpg,NonAnimall,MediumBody,5,51,NonAnimall,4,1.07709149999982,1.19192010000006,1
C:\psychtool\AnimalDB\AnimalDB\NonAnimall\MediumBody\Mda_par135.jpg,NonAnimall,MediumBody,5,52,NonAnimall,4,1.00978329999998,1.12481319999961,1
C:\psychtool\AnimalDB\AnimalDB\Animall\Head\H_N247023.jpg,Animall,Head,5,53,Animall,5,0.816553399999975,0.931498200000078,1
C:\psychtool\AnimalDB\AnimalDB\NonAnimall\MediumBody\Mda_art1136.jpg,NonAnimall,MediumBody,5,54,NonAnimall,4,0.782220199999756,0.897302800000034,1
C:\psychtool\AnimalDB\AnimalDB\NonAnimall\Head\Hda_obj93.jpg,NonAnimall,Head,5,55,NonAnimall,4,0.942711099999997,1.05771559999994,1
C:\psychtool\AnimalDB\AnimalDB\Animall\CloseBody\B_N77030.jpg,Animall,CloseBody,5,56,Animall,5,0.62231040000006,0.737391499999831,1
C:\psychtool\AnimalDB\AnimalDB\Animall\Head\H_N415046.jpg,Animall,Head,5,57,Animall,5,0.509784100000161,0.624834300000202,1
C:\psychtool\AnimalDB\AnimalDB\NonAnimall\FarBody\Fda_A244041.jpg,NonAnimall,FarBody,5,58,NonAnimall,4,1.28063829999974,1.39576609999995,1
C:\psychtool\AnimalDB\AnimalDB\Animall\CloseBody\B_N110000.jpg,Animall,CloseBody,5,59,Animall,5,0.795969399999649,0.911060100000213,1
C:\psychtool\AnimalDB\AnimalDB\Animall\CloseBody\B_N105065.jpg,Animall,CloseBody,5,60,Animall,5,0.646227199999885,0.761185500000011,1
C:\psychtool\AnimalDB\AnimalDB\Animall\CloseBody\B_N110022.jpg,Animall,CloseBody,5,61,Animall,5,0.641336000000138,0.756324400000267,1
C:\psychtool\AnimalDB\AnimalDB\NonAnimall\MediumBody\Mda_urb840.jpg,NonAnimall,MediumBody,5,62,NonAnimall,4,1.05977230000008,1.17490300000009,1
C:\psychtool\AnimalDB\AnimalDB\NonAnimall\FarBody\Fda_A463059.jpg,NonAnimall,FarBody,5,63,NonAnimall,5,0.925737600000048,1.04078579999987,1
C:\psychtool\AnimalDB\AnimalDB\NonAnimall\MediumBody\Mda_art669.jpg,NonAnimall,MediumBody,5,64,NonAnimall,5,0.787765699999909,0.903011500000048,1
C:\psychtool\AnimalDB\AnimalDB\NonAnimall\Head\Hda_obj357.jpg,NonAnimall,Head,5,65,NonAnimall,5,1.11053030000039,1.22559780000029,1
C:\psychtool\AnimalDB\AnimalDB\NonAnimall\Head\Hda_obj298.jpg,NonAnimall,Head,5,66,Animall,5,0.638411400000223,0.753415500000301,0
C:\psychtool\AnimalDB\AnimalDB\Animall\CloseBody\B_N107091.jpg,Animall,CloseBody,5,67,Animall,5,0.679793900000277,0.79469569999992,1
C:\psychtool\AnimalDB\AnimalDB\NonAnimall\Head\Hda_obj345.jpg,NonAnimall,Head,5,68,Animall,5,0.843519699999888,0.95870079999986,0
C:\psychtool\AnimalDB\AnimalDB\NonAnimall\Head\Hda_obj5.jpg,NonAnimall,Head,5,69,NonAnimall,4,0.941337300000214,1.05633450000005,1
C:\psychtool\AnimalDB\AnimalDB\NonAnimall\FarBody\Fda_art1015.jpg,NonAnimall,FarBody,5,70,NonAnimall,5,0.85704080000005,0.972174600000017,1
C:\psychtool\AnimalDB\AnimalDB\NonAnimall\Head\Hda_obj292.jpg,NonAnimall,Head,5,71,NonAnimall,4,1.1892398,1.30557159999989,1
C:\psychtool\AnimalDB\AnimalDB\NonAnimall\MediumBody\Mda_art376.jpg,NonAnimall,MediumBody,5,72,NonAnimall,5,0.888455899999826,1.00350740000022,1
C:\psychtool\AnimalDB\AnimalDB\Animall\CloseBody\B_N123042.jpg,Animall,CloseBody,5,73,Animall,5,0.993020899999919,1.10787830000027,1
C:\psychtool\AnimalDB\AnimalDB\NonAnimall\Head\Hda_obj404.jpg,NonAnimall,Head,5,74,Animall,5,0.677354200000082,0.792255599999862,0
C:\psychtool\AnimalDB\AnimalDB\Animall\CloseBody\B_N49022.jpg,Animall,CloseBody,5,75,Animall,5,0.671001100000012,0.786193999999796,1
C:\psychtool\AnimalDB\AnimalDB\Animall\MediumBody\M_N253087.jpg,Animall,MediumBody,5,76,Animall,5,0.659600399999817,0.774470800000017,1
C:\psychtool\AnimalDB\AnimalDB\Animall\MediumBody\M_N268028.jpg,Animall,MediumBody,5,77,Animall,5,0.561188499999844,0.676264400000036,1
C:\psychtool\AnimalDB\AnimalDB\NonAnimall\MediumBody\Mda_art361.jpg,NonAnimall,MediumBody,5,78,Animall,2,1.10986249999996,1.2248354000003,0
C:\psychtool\AnimalDB\AnimalDB\NonAnimall\CloseBody\Bda_urb286.jpg,NonAnimall,CloseBody,5,79,NonAnimall,4,0.929501699999946,1.0445394000003,1
C:\psychtool\AnimalDB\AnimalDB\NonAnimall\FarBody\Fda_art1626.jpg,NonAnimall,FarBody,5,80,NonAnimall,3,0.795024099999864,0.910061699999915,1
C:\psychtool\AnimalDB\AnimalDB\NonAnimall\MediumBody\Mda_arnat70.jpg,NonAnimall,MediumBody,5,81,NonAnimall,4,0.91106630000013,1.02593890000026,1
C:\psychtool\AnimalDB\AnimalDB\Animall\CloseBody\B_N70085.jpg,Animall,CloseBody,5,82,Animall,5,0.741019300000062,0.856071600000178,1
C:\psychtool\AnimalDB\AnimalDB\NonAnimall\FarBody\Fda_A698003.jpg,NonAnimall,FarBody,5,83,NonAnimall,4,1.20688689999997,1.3218581000001,1
C:\psychtool\AnimalDB\AnimalDB\Animall\Head\H_N247087.jpg,Animall,Head,5,84,Animall,5,0.578200599999946,0.693252399999892,1
C:\psychtool\AnimalDB\AnimalDB\NonAnimall\Head\Hda_obj97.jpg,NonAnimall,Head,5,85,NonAnimall,5,0.906790600000022,1.02171279999993,1
C:\psychtool\AnimalDB\AnimalDB\Animall\CloseBody\B_N103086.jpg,Animall,CloseBody,5,86,Animall,5,0.788504999999986,0.903324899999916,1
C:\psychtool\AnimalDB\AnimalDB\NonAnimall\Head\Hda_obj396.jpg,NonAnimall,Head,5,87,NonAnimall,5,0.694145100000242,0.809186400000272,1
C:\psychtool\AnimalDB\AnimalDB\NonAnimall\Head\Hda_obj7.jpg,NonAnimall,Head,5,88,NonAnimall,4,0.805701999999656,0.920531500000379,1
C:\psychtool\AnimalDB\AnimalDB\NonAnimall\MediumBody\Mda_urb700.jpg,NonAnimall,MediumBody,5,89,NonAnimall,5,0.743680200000199,0.858698700000332,1
C:\psychtool\AnimalDB\AnimalDB\Animall\FarBody\F_N104070.jpg,Animall,FarBody,5,90,Animall,5,1.04394820000016,1.15906799999993,1
C:\psychtool\AnimalDB\AnimalDB\Animall\Head\H_N816096.jpg,Animall,Head,5,91,Animall,5,0.608300400000189,0.723342100000082,1
C:\psychtool\AnimalDB\AnimalDB\NonAnimall\CloseBody\Bda_room9.jpg,NonAnimall,CloseBody,5,92,NonAnimall,4,0.957061999999951,1.07189289999997,1
C:\psychtool\AnimalDB\AnimalDB\Animall\Head\H_N824074.jpg,Animall,Head,5,93,Animall,5,0.600416599999789,0.715497299999697,1
C:\psychtool\AnimalDB\AnimalDB\Animall\Head\H_N427097.jpg,Animall,Head,5,94,Animall,5,0.820369500000197,0.935339800000293,1
C:\psychtool\AnimalDB\AnimalDB\NonAnimall\FarBody\Fda_art464.jpg,NonAnimall,FarBody,5,95,NonAnimall,5,0.845261700000265,0.960238599999684,1
C:\psychtool\AnimalDB\AnimalDB\NonAnimall\FarBody\Fda_A804056.jpg,NonAnimall,FarBody,5,96,NonAnimall,5,0.837294200000088,0.952285400000164,1
C:\psychtool\AnimalDB\AnimalDB\Animall\Head\H_N247005.jpg,Animall,Head,5,97,Animall,5,0.432657999999719,0.548268300000018,1
C:\psychtool\AnimalDB\AnimalDB\Animall\CloseBody\B_N77063.jpg,Animall,CloseBody,5,98,Animall,5,1.04231690000006,1.15721919999987,1
C:\psychtool\AnimalDB\AnimalDB\NonAnimall\FarBody\Fda_A683068.jpg,NonAnimall,FarBody,5,99,NonAnimall,5,0.959485699999732,1.07431250000036,1
C:\psychtool\AnimalDB\AnimalDB\NonAnimall\FarBody\Fda_street29.jpg,NonAnimall,FarBody,5,100,Animall,5,0.756094200000007,0.871169400000326,0
C:\psychtool\AnimalDB\AnimalDB\NonAnimall\CloseBody\Bda_art142.jpg,NonAnimall,CloseBody,5,101,NonAnimall,4,0.964216100000158,1.07923059999985,1
C:\psychtool\AnimalDB\AnimalDB\Animall\MediumBody\M_N112050.jpg,Animall,MediumBody,5,102,Animall,5,0.878535199999988,0.993615099999715,1
C:\psychtool\AnimalDB\AnimalDB\NonAnimall\CloseBody\Bda_art1111.jpg,NonAnimall,CloseBody,5,103,Animall,2,1.0719138999998,1.18679449999991,0
C:\psychtool\AnimalDB\AnimalDB\NonAnimall\Head\Hda_int168.jpg,NonAnimall,Head,5,104,NonAnimall,2,1.29612910000014,1.41101069999968,1
C:\psychtool\AnimalDB\AnimalDB\Animall\MediumBody\M_N253095.jpg,Animall,MediumBody,5,105,Animall,5,0.586491499999738,0.701558700000078,1
C:\psychtool\AnimalDB\AnimalDB\NonAnimall\MediumBody\Mda_urb276.jpg,NonAnimall,MediumBody,5,106,NonAnimall,4,0.887288600000375,1.00226559999965,1
C:\psychtool\AnimalDB\AnimalDB\Animall\MediumBody\M_N173020.jpg,Animall,MediumBody,5,107,Animall,5,0.777782799999841,0.892785499999718,1
C:\psychtool\AnimalDB\AnimalDB\NonAnimall\MediumBody\Mda_art675.jpg,NonAnimall,MediumBody,5,108,NonAnimall,3,1.19205570000031,1.30698460000031,1
C:\psychtool\AnimalDB\AnimalDB\Animall\FarBody\F_land79.jpg,Animall,FarBody,5,109,Animall,5,0.578105099999902,0.693038799999613,1
C:\psychtool\AnimalDB\AnimalDB\NonAnimall\MediumBody\Mdn_text119.jpg,NonAnimall,MediumBody,5,110,Animall,5,0.898098300000129,1.0131121000004,0
C:\psychtool\AnimalDB\AnimalDB\Animall\MediumBody\M_N289058.jpg,Animall,MediumBody,5,111,Animall,5,0.798941600000035,0.913991899999928,1
C:\psychtool\AnimalDB\AnimalDB\NonAnimall\FarBody\Fda_art779.jpg,NonAnimall,FarBody,5,112,NonAnimall,4,0.898729699999876,1.01391700000022,1
C:\psychtool\AnimalDB\AnimalDB\NonAnimall\MediumBody\Mda_gre178.jpg,NonAnimall,MediumBody,5,113,NonAnimall,4,0.864805299999716,0.979668299999958,1
C:\psychtool\AnimalDB\AnimalDB\NonAnimall\FarBody\Fda_A683045.jpg,NonAnimall,FarBody,5,114,NonAnimall,4,0.760443299999679,0.875575800000206,1
C:\psychtool\AnimalDB\AnimalDB\Animall\MediumBody\M_N136034.jpg,Animall,MediumBody,5,115,Animall,5,0.821165800000017,0.936245800000052,1
C:\psychtool\AnimalDB\AnimalDB\NonAnimall\MediumBody\Mda_art750.jpg,NonAnimall,MediumBody,5,116,NonAnimall,5,0.972786699999688,1.0875775999998,1
C:\psychtool\AnimalDB\AnimalDB\NonAnimall\FarBody\Fda_A731012.jpg,NonAnimall,FarBody,5,117,NonAnimall,4,0.951305800000227,1.06669669999974,1
C:\psychtool\AnimalDB\AnimalDB\NonAnimall\FarBody\Fdn_sharp22.jpg,NonAnimall,FarBody,5,118,Animall,3,0.933802500000183,1.04874300000029,0
C:\psychtool\AnimalDB\AnimalDB\NonAnimall\CloseBody\Bda_room133.jpg,NonAnimall,CloseBody,5,119,NonAnimall,4,0.781733899999836,0.89655780000021,1
C:\psychtool\AnimalDB\AnimalDB\Animall\Head\H_N173047.jpg,Animall,Head,5,120,Animall,5,0.751776900000095,0.867129900000236,1
