file,category,distance,block,trial,response,confidence,responseTime,reactionTime,correct
C:\Users\Home\Downloads\psychtool\AnimalDB\AnimalDB\Animall\MediumBody\M_N112050.jpg,Animall,MediumBody,1,1,Animall,5,3.0401805115398,3.161268415628,1
C:\Users\Home\Downloads\psychtool\AnimalDB\AnimalDB\NonAnimall\FarBody\Fda_urb342.jpg,NonAnimall,FarBody,1,2,Animall,2,3.73147240956314,3.8503135999199,0
C:\Users\Home\Downloads\psychtool\AnimalDB\AnimalDB\NonAnimall\CloseBody\Bda_room454.jpg,NonAnimall,CloseBody,1,3,NonAnimall,4,3.4807281140238,3.59890481084585,1
C:\Users\Home\Downloads\psychtool\AnimalDB\AnimalDB\Animall\Head\H_N824022.jpg,Animall,Head,1,4,Animall,4,4.10222569713369,4.22546866140328,1
C:\Users\Home\Downloads\psychtool\AnimalDB\AnimalDB\Animall\MediumBody\M_N130081.jpg,Animall,MediumBody,1,5,Animall,4,1.95589810889214,2.07142789429054,1
C:\Users\Home\Downloads\psychtool\AnimalDB\AnimalDB\NonAnimall\CloseBody\Bda_room40.jpg,NonAnimall,CloseBody,1,6,NonAnimall,5,1.23114095325582,1.34792268811725,1
C:\Users\Home\Downloads\psychtool\AnimalDB\AnimalDB\NonAnimall\MediumBody\Mda_art1084.jpg,NonAnimall,MediumBody,1,7,NonAnimall,5,0.878588935360312,0.99647526210174,1
C:\Users\Home\Downloads\psychtool\AnimalDB\AnimalDB\Animall\Head\H_N415046.jpg,Animall,Head,1,8,Animall,5,1.0208300082013,1.1376073975116,1
C:\Users\Home\Downloads\psychtool\AnimalDB\AnimalDB\Animall\MediumBody\M_N168073.jpg,Animall,MediumBody,1,9,Animall,5,1.01992413238622,1.14132532035001,1
C:\Users\Home\Downloads\psychtool\AnimalDB\AnimalDB\NonAnimall\FarBody\Fda_A805045.jpg,NonAnimall,FarBody,1,10,Animall,3,1.66419068514369,1.78172027133405,0
C:\Users\Home\Downloads\psychtool\AnimalDB\AnimalDB\Animall\FarBody\F_ani22.jpg,Animall,FarBody,1,11,Animall,3,2.31961732753552,2.44267145264894,1
C:\Users\Home\Downloads\psychtool\AnimalDB\AnimalDB\NonAnimall\CloseBody\Bda_room178.jpg,NonAnimall,CloseBody,1,12,Animall,3,1.59378718514927,1.71121840109117,0
C:\Users\Home\Downloads\psychtool\AnimalDB\AnimalDB\Animall\CloseBody\B_N107001.jpg,Animall,CloseBody,1,13,Animall,3,1.80306069878861,1.92581813270226,1
C:\Users\Home\Downloads\psychtool\AnimalDB\AnimalDB\Animall\FarBody\F_N42035.jpg,Animall,FarBody,1,14,Animall,3,1.61917146132328,1.7377289973665,1
C:\Users\Home\Downloads\psychtool\AnimalDB\AnimalDB\Animall\MediumBody\M_N253091.jpg,Animall,MediumBody,1,15,Animall,4,2.10296762245707,2.22435182263143,1
C:\Users\Home\Downloads\psychtool\AnimalDB\AnimalDB\Animall\CloseBody\B_ani51.jpg,Animall,CloseBody,1,16,Animall,5,1.22892702906393,1.34745730576105,1
C:\Users\Home\Downloads\psychtool\AnimalDB\AnimalDB\Animall\Head\H_N247007.jpg,Animall,Head,1,17,Animall,5,0.845441702520475,0.963242300786078,1
C:\Users\Home\Downloads\psychtool\AnimalDB\AnimalDB\Animall\FarBody\F_N130009.jpg,Animall,FarBody,1,18,Animall,5,0.815381084103137,0.933812595438212,1
C:\Users\Home\Downloads\psychtool\AnimalDB\AnimalDB\Animall\MediumBody\M_N815026.jpg,Animall,MediumBody,1,19,NonAnimall,5,1.80343008111231,1.92657151469029,0
C:\Users\Home\Downloads\psychtool\AnimalDB\AnimalDB\Animall\Head\H_N134031.jpg,Animall,Head,1,20,Animall,4,1.19883441063575,1.31764597143047,1
C:\Users\Home\Downloads\psychtool\AnimalDB\AnimalDB\NonAnimall\CloseBody\Bda_enc67.jpg,NonAnimall,CloseBody,1,21,NonAnimall,5,1.11642775987275,1.23332998855039,1
C:\Users\Home\Downloads\psychtool\AnimalDB\AnimalDB\NonAnimall\FarBody\Fda_A673086.jpg,NonAnimall,FarBody,1,22,NonAnimall,5,1.40481311222538,1.21043657441624,1
C:\Users\Home\Downloads\psychtool\AnimalDB\AnimalDB\Animall\FarBody\F_N16060.jpg,Animall,FarBody,1,23,Animall,4,2.25342004676349,2.3755007404834,1
C:\Users\Home\Downloads\psychtool\AnimalDB\AnimalDB\NonAnimall\Head\Hda_obj182.jpg,NonAnimall,Head,1,24,Animall,4,1.42011265573092,1.54243828752078,0
C:\Users\Home\Downloads\psychtool\AnimalDB\AnimalDB\NonAnimall\MediumBody\Mda_urb382.jpg,NonAnimall,MediumBody,1,25,NonAnimall,5,1.08663696842268,1.21101020346396,1
C:\Users\Home\Downloads\psychtool\AnimalDB\AnimalDB\Animall\CloseBody\B_N103008.jpg,Animall,CloseBody,1,26,NonAnimall,2,2.41622090572491,2.53443750366569,0
C:\Users\Home\Downloads\psychtool\AnimalDB\AnimalDB\NonAnimall\CloseBody\Bda_art1117.jpg,NonAnimall,CloseBody,1,27,NonAnimall,4,1.80287660006434,1.92840894544497,1
C:\Users\Home\Downloads\psychtool\AnimalDB\AnimalDB\NonAnimall\Head\Hda_obj95.jpg,NonAnimall,Head,1,28,Animall,5,1.38633608981036,1.50680927862413,0
C:\Users\Home\Downloads\psychtool\AnimalDB\AnimalDB\Animall\Head\H_N707021.jpg,Animall,Head,1,29,Animall,3,2.18635165528394,2.31096350727603,1
C:\Users\Home\Downloads\psychtool\AnimalDB\AnimalDB\NonAnimall\CloseBody\Bda_room185.jpg,NonAnimall,CloseBody,1,30,NonAnimall,5,2.11535872356035,2.23416159278713,1
C:\Users\Home\Downloads\psychtool\AnimalDB\AnimalDB\NonAnimall\Head\Hdn_text6.jpg,NonAnimall,Head,1,31,NonAnimall,5,2.49502657190897,2.61379902111366,1
C:\Users\Home\Downloads\psychtool\AnimalDB\AnimalDB\NonAnimall\Head\Hda_obj90.jpg,NonAnimall,Head,1,32,NonAnimall,3,2.70232003764249,2.82565386616625,1
C:\Users\Home\Downloads\psychtool\AnimalDB\AnimalDB\NonAnimall\CloseBody\Bda_int753.jpg,NonAnimall,CloseBody,1,33,NonAnimall,3,1.18201151047833,1.30116124358028,1
C:\Users\Home\Downloads\psychtool\AnimalDB\AnimalDB\NonAnimall\MediumBody\Mda_gre189.jpg,NonAnimall,MediumBody,1,34,NonAnimall,3,2.46665247064084,2.5859499569051,1
C:\Users\Home\Downloads\psychtool\AnimalDB\AnimalDB\Animall\CloseBody\B_N49001.jpg,Animall,CloseBody,1,35,NonAnimall,3,1.73279784084298,1.85234816605225,0
C:\Users\Home\Downloads\psychtool\AnimalDB\AnimalDB\Animall\FarBody\F_N103058.jpg,Animall,FarBody,1,36,Animall,3,1.302460600622,1.4212247536052,1
C:\Users\Home\Downloads\psychtool\AnimalDB\AnimalDB\NonAnimall\MediumBody\Mda_art675.jpg,NonAnimall,MediumBody,1,37,NonAnimall,4,1.25330784916878,1.37738676345907,1
C:\Users\Home\Downloads\psychtool\AnimalDB\AnimalDB\NonAnimall\CloseBody\Bda_gre328.jpg,NonAnimall,CloseBody,1,38,NonAnimall,4,1.03094832110219,1.14938694355078,1
C:\Users\Home\Downloads\psychtool\AnimalDB\AnimalDB\NonAnimall\Head\Hda_obj71.jpg,NonAnimall,Head,1,39,NonAnimall,4,1.95248951902613,2.07596319913864,1
C:\Users\Home\Downloads\psychtool\AnimalDB\AnimalDB\Animall\Head\H_N123009.jpg,Animall,Head,1,40,Animall,3,2.81949288328178,2.9412188117858,1
C:\Users\Home\Downloads\psychtool\AnimalDB\AnimalDB\Animall\Head\H_N247008.jpg,Animall,Head,1,41,Animall,4,1.87702370202169,1.99521264573559,1
C:\Users\Home\Downloads\psychtool\AnimalDB\AnimalDB\Animall\MediumBody\M_N268024.jpg,Animall,MediumBody,1,42,Animall,4,1.88511455990374,2.00303644221276,1
C:\Users\Home\Downloads\psychtool\AnimalDB\AnimalDB\NonAnimall\MediumBody\Mda_art361.jpg,NonAnimall,MediumBody,1,43,NonAnimall,4,2.3862874971237,2.5051429097075,1
C:\Users\Home\Downloads\psychtool\AnimalDB\AnimalDB\Animall\CloseBody\B_N109057.jpg,Animall,CloseBody,1,44,NonAnimall,2,2.81958216708153,2.94170987326652,0
C:\Users\Home\Downloads\psychtool\AnimalDB\AnimalDB\NonAnimall\MediumBody\Mda_art547.jpg,NonAnimall,MediumBody,1,45,NonAnimall,4,1.88197026611306,2.00107259163633,1
C:\Users\Home\Downloads\psychtool\AnimalDB\AnimalDB\NonAnimall\FarBody\Fda_art1626.jpg,NonAnimall,FarBody,1,46,NonAnimall,5,1.58120842953213,1.69892211421393,1
C:\Users\Home\Downloads\psychtool\AnimalDB\AnimalDB\NonAnimall\CloseBody\Bda_int16.jpg,NonAnimall,CloseBody,1,47,NonAnimall,2,1.84903755132109,1.96720792725682,1
C:\Users\Home\Downloads\psychtool\AnimalDB\AnimalDB\Animall\CloseBody\B_N110000.jpg,Animall,CloseBody,1,48,NonAnimall,3,2.46165533876047,2.57976250490174,0
C:\Users\Home\Downloads\psychtool\AnimalDB\AnimalDB\NonAnimall\CloseBody\Bda_room12.jpg,NonAnimall,CloseBody,1,49,NonAnimall,2,2.18032933888026,2.29785576462746,1
C:\Users\Home\Downloads\psychtool\AnimalDB\AnimalDB\Animall\MediumBody\M_N130005.jpg,Animall,MediumBody,1,50,Animall,2,3.81934592057951,3.94288004515693,1
C:\Users\Home\Downloads\psychtool\AnimalDB\AnimalDB\Animall\MediumBody\M_N802029.jpg,Animall,MediumBody,1,51,Animall,3,2.15177548490465,2.26944926870055,1
C:\Users\Home\Downloads\psychtool\AnimalDB\AnimalDB\Animall\FarBody\F_N130050.jpg,Animall,FarBody,1,52,Animall,5,0.950003792531788,1.06827569915913,1
C:\Users\Home\Downloads\psychtool\AnimalDB\AnimalDB\Animall\Head\H_N427097.jpg,Animall,Head,1,53,Animall,5,0.951116285519674,1.06904685893096,1
C:\Users\Home\Downloads\psychtool\AnimalDB\AnimalDB\Animall\Head\H_N415081.jpg,Animall,Head,1,54,Animall,5,0.995418472681195,1.11325976252556,1
C:\Users\Home\Downloads\psychtool\AnimalDB\AnimalDB\NonAnimall\FarBody\Fda_A219084.jpg,NonAnimall,FarBody,1,55,NonAnimall,5,1.88635702803731,2.01055801636539,1
C:\Users\Home\Downloads\psychtool\AnimalDB\AnimalDB\Animall\CloseBody\B_N75034.jpg,Animall,CloseBody,1,56,Animall,2,3.44355757557787,3.56197012402117,1
C:\Users\Home\Downloads\psychtool\AnimalDB\AnimalDB\NonAnimall\CloseBody\Bda_art629.jpg,NonAnimall,CloseBody,1,57,NonAnimall,4,2.28365014609881,2.40331424912438,1
C:\Users\Home\Downloads\psychtool\AnimalDB\AnimalDB\Animall\Head\H_N408065.jpg,Animall,Head,1,58,NonAnimall,3,1.96521247178316,2.08363647712395,0
C:\Users\Home\Downloads\psychtool\AnimalDB\AnimalDB\Animall\MediumBody\M_N110047.jpg,Animall,MediumBody,1,59,NonAnimall,2,3.62678468995728,3.74544770712964,0
C:\Users\Home\Downloads\psychtool\AnimalDB\AnimalDB\NonAnimall\MediumBody\Mda_hexp5.jpg,NonAnimall,MediumBody,1,60,NonAnimall,2,1.16989932255819,1.28984510409646,1
C:\Users\Home\Downloads\psychtool\AnimalDB\AnimalDB\Animall\MediumBody\M_N253027.jpg,Animall,MediumBody,1,61,Animall,5,0.920066433725879,1.04316282994114,1
C:\Users\Home\Downloads\psychtool\AnimalDB\AnimalDB\NonAnimall\FarBody\Fda_art1470.jpg,NonAnimall,FarBody,1,62,NonAnimall,5,1.03186960425228,1.1502572640311,1
C:\Users\Home\Downloads\psychtool\AnimalDB\AnimalDB\Animall\MediumBody\M_N574077.jpg,Animall,MediumBody,1,63,Animall,3,2.0805056153331,2.19876606529579,1
C:\Users\Home\Downloads\psychtool\AnimalDB\AnimalDB\NonAnimall\Head\Hda_int888.jpg,NonAnimall,Head,1,64,Animall,1,3.1028941408731,3.22693591937423,0
C:\Users\Home\Downloads\psychtool\AnimalDB\AnimalDB\NonAnimall\FarBody\Fda_A683068.jpg,NonAnimall,FarBody,1,65,NonAnimall,3,2.48631546762772,2.60541147226468,1
C:\Users\Home\Downloads\psychtool\AnimalDB\AnimalDB\NonAnimall\FarBody\Fda_art1465.jpg,NonAnimall,FarBody,1,66,NonAnimall,3,1.62958409520797,1.74813491501845,1
C:\Users\Home\Downloads\psychtool\AnimalDB\AnimalDB\NonAnimall\FarBody\Fdn_text69.jpg,NonAnimall,FarBody,1,67,NonAnimall,3,1.73000396648422,1.84847537893802,1
C:\Users\Home\Downloads\psychtool\AnimalDB\AnimalDB\NonAnimall\FarBody\Fda_urb306.jpg,NonAnimall,FarBody,1,68,NonAnimall,3,1.55287343962118,1.67501023202203,1
C:\Users\Home\Downloads\psychtool\AnimalDB\AnimalDB\Animall\FarBody\F_land764.jpg,Animall,FarBody,1,69,NonAnimall,4,1.77943958155811,1.8983534630388,0
C:\Users\Home\Downloads\psychtool\AnimalDB\AnimalDB\NonAnimall\CloseBody\Bda_art1147.jpg,NonAnimall,CloseBody,1,70,NonAnimall,4,2.02008887310512,2.13924413686618,1
C:\Users\Home\Downloads\psychtool\AnimalDB\AnimalDB\Animall\CloseBody\B_N168078.jpg,Animall,CloseBody,1,71,NonAnimall,3,1.73344258102588,1.85194125259295,0
C:\Users\Home\Downloads\psychtool\AnimalDB\AnimalDB\Animall\CloseBody\B_N49068.jpg,Animall,CloseBody,1,72,Animall,2,1.96660111285746,2.08616763562895,1
C:\Users\Home\Downloads\psychtool\AnimalDB\AnimalDB\Animall\Head\H_N826076.jpg,Animall,Head,1,73,Animall,2,1.48217956954613,1.60105829034001,1
C:\Users\Home\Downloads\psychtool\AnimalDB\AnimalDB\NonAnimall\Head\Hda_obj454.jpg,NonAnimall,Head,1,74,NonAnimall,4,2.75261491164565,2.87155763246119,1
C:\Users\Home\Downloads\psychtool\AnimalDB\AnimalDB\Animall\MediumBody\M_N197092.jpg,Animall,MediumBody,1,75,NonAnimall,2,1.76938566379249,1.88856502645649,0
C:\Users\Home\Downloads\psychtool\AnimalDB\AnimalDB\Animall\Head\H_N136052.jpg,Animall,Head,1,76,NonAnimall,2,1.56906345160678,1.69450019206852,0
C:\Users\Home\Downloads\psychtool\AnimalDB\AnimalDB\Animall\Head\H_N247087.jpg,Animall,Head,1,77,NonAnimall,2,1.83096783724613,1.94912478094921,0
C:\Users\Home\Downloads\psychtool\AnimalDB\AnimalDB\Animall\MediumBody\M_N289096.jpg,Animall,MediumBody,1,78,Animall,3,1.73662322037853,1.85562638589181,1
C:\Users\Home\Downloads\psychtool\AnimalDB\AnimalDB\NonAnimall\CloseBody\Bda_art1157.jpg,NonAnimall,CloseBody,1,79,NonAnimall,4,1.75111288786866,1.86945985630155,1
C:\Users\Home\Downloads\psychtool\AnimalDB\AnimalDB\NonAnimall\Head\Hda_obj74.jpg,NonAnimall,Head,1,80,NonAnimall,4,1.10335359745659,1.22593799442984,1
C:\Users\Home\Downloads\psychtool\AnimalDB\AnimalDB\NonAnimall\MediumBody\Mda_art1665.jpg,NonAnimall,MediumBody,1,81,NonAnimall,5,1.43292252207175,1.55187353910878,1
C:\Users\Home\Downloads\psychtool\AnimalDB\AnimalDB\Animall\FarBody\F_N43063.jpg,Animall,FarBody,1,82,NonAnimall,5,1.20004250877537,1.31820300780237,0
C:\Users\Home\Downloads\psychtool\AnimalDB\AnimalDB\Animall\Head\H_N123022.jpg,Animall,Head,1,83,NonAnimall,2,2.07854532077909,2.19730473286472,0
C:\Users\Home\Downloads\psychtool\AnimalDB\AnimalDB\Animall\CloseBody\B_N160088.jpg,Animall,CloseBody,1,84,NonAnimall,2,1.01845331885852,1.1364008798264,0
C:\Users\Home\Downloads\psychtool\AnimalDB\AnimalDB\NonAnimall\FarBody\Fda_A517086.jpg,NonAnimall,FarBody,1,85,Animall,2,2.9004808687605,3.01878438028507,0
C:\Users\Home\Downloads\psychtool\AnimalDB\AnimalDB\NonAnimall\MediumBody\Mda_archi100.jpg,NonAnimall,MediumBody,1,86,NonAnimall,4,1.78448609611951,1.90231158351526,1
C:\Users\Home\Downloads\psychtool\AnimalDB\AnimalDB\NonAnimall\MediumBody\Mda_urb700.jpg,NonAnimall,MediumBody,1,87,NonAnimall,5,1.05291492119431,1.17080480325967,1
C:\Users\Home\Downloads\psychtool\AnimalDB\AnimalDB\NonAnimall\FarBody\Fda_city89.jpg,NonAnimall,FarBody,1,88,NonAnimall,2,2.82747786468826,2.94558226526715,1
C:\Users\Home\Downloads\psychtool\AnimalDB\AnimalDB\NonAnimall\CloseBody\Bda_art1271.jpg,NonAnimall,CloseBody,1,89,NonAnimall,2,2.18527985364199,2.30325941485353,1
C:\Users\Home\Downloads\psychtool\AnimalDB\AnimalDB\Animall\CloseBody\B_N134098.jpg,Animall,CloseBody,1,90,Animall,4,1.83655321551487,1.95604625693522,1
C:\Users\Home\Downloads\psychtool\AnimalDB\AnimalDB\NonAnimall\MediumBody\Mda_gre321.jpg,NonAnimall,MediumBody,1,91,NonAnimall,5,1.13086093356833,1.2487670131959,1
C:\Users\Home\Downloads\psychtool\AnimalDB\AnimalDB\Animall\FarBody\F_N104070.jpg,Animall,FarBody,1,92,Animall,2,3.76951089804061,3.89341559051536,1
C:\Users\Home\Downloads\psychtool\AnimalDB\AnimalDB\Animall\Head\H_N471000.jpg,Animall,Head,1,93,Animall,2,4.19725376996212,4.31587412091903,1
C:\Users\Home\Downloads\psychtool\AnimalDB\AnimalDB\NonAnimall\FarBody\Fda_art1418.jpg,NonAnimall,FarBody,1,94,NonAnimall,4,1.37862686137669,1.49724760721438,1
C:\Users\Home\Downloads\psychtool\AnimalDB\AnimalDB\Animall\CloseBody\B_N109005.jpg,Animall,CloseBody,1,95,Animall,2,2.1691826810129,2.28785241465084,1
C:\Users\Home\Downloads\psychtool\AnimalDB\AnimalDB\NonAnimall\MediumBody\Mda_urb324.jpg,NonAnimall,MediumBody,1,96,NonAnimall,2,3.23033542302437,3.34907863778062,1
C:\Users\Home\Downloads\psychtool\AnimalDB\AnimalDB\Animall\MediumBody\M_N253003.jpg,Animall,MediumBody,1,97,Animall,4,1.65294012590311,1.7748260544613,1
C:\Users\Home\Downloads\psychtool\AnimalDB\AnimalDB\NonAnimall\Head\Hda_obj100.jpg,NonAnimall,Head,1,98,NonAnimall,4,1.71430975641124,1.83279262599535,1
C:\Users\Home\Downloads\psychtool\AnimalDB\AnimalDB\Animall\FarBody\F_land79.jpg,Animall,FarBody,1,99,Animall,3,1.6823267696891,1.80074405879714,1
C:\Users\Home\Downloads\psychtool\AnimalDB\AnimalDB\Animall\Head\H_N828096.jpg,Animall,Head,1,100,Animall,3,3.04576509958133,3.16514594340697,1
C:\Users\Home\Downloads\psychtool\AnimalDB\AnimalDB\NonAnimall\CloseBody\Bda_room452.jpg,NonAnimall,CloseBody,1,101,NonAnimall,2,2.13300611707382,2.25208908482455,1
C:\Users\Home\Downloads\psychtool\AnimalDB\AnimalDB\NonAnimall\FarBody\Fda_art462.jpg,NonAnimall,FarBody,1,102,NonAnimall,3,1.50350221944973,1.62414488964714,1
C:\Users\Home\Downloads\psychtool\AnimalDB\AnimalDB\NonAnimall\MediumBody\Mda_gre329.jpg,NonAnimall,MediumBody,1,103,NonAnimall,2,1.80317487148568,1.92456618300639,1
C:\Users\Home\Downloads\psychtool\AnimalDB\AnimalDB\NonAnimall\Head\Hda_obj390.jpg,NonAnimall,Head,1,104,NonAnimall,5,1.6036795231048,1.72341078636236,1
C:\Users\Home\Downloads\psychtool\AnimalDB\AnimalDB\NonAnimall\Head\Hda_int314.jpg,NonAnimall,Head,1,105,NonAnimall,2,2.29817694961093,2.41747680609114,1
C:\Users\Home\Downloads\psychtool\AnimalDB\AnimalDB\Animall\MediumBody\M_N136034.jpg,Animall,MediumBody,1,106,Animall,4,1.64774625352584,1.76631998713128,1
C:\Users\Home\Downloads\psychtool\AnimalDB\AnimalDB\Animall\MediumBody\M_N160059.jpg,Animall,MediumBody,1,107,Animall,3,2.00361481192522,2.12302844598889,1
C:\Users\Home\Downloads\psychtool\AnimalDB\AnimalDB\NonAnimall\Head\Hda_obj252.jpg,NonAnimall,Head,1,108,Animall,3,1.6115392697975,1.73069255845621,0
C:\Users\Home\Downloads\psychtool\AnimalDB\AnimalDB\NonAnimall\MediumBody\Mda_urb840.jpg,NonAnimall,MediumBody,1,109,NonAnimall,5,0.912747130496427,1.03105775313452,1
C:\Users\Home\Downloads\psychtool\AnimalDB\AnimalDB\NonAnimall\CloseBody\Bda_art682.jpg,NonAnimall,CloseBody,1,110,NonAnimall,3,1.94967075600289,2.06940834014677,1
C:\Users\Home\Downloads\psychtool\AnimalDB\AnimalDB\NonAnimall\FarBody\Fda_urb715.jpg,NonAnimall,FarBody,1,111,NonAnimall,3,1.44917100295424,1.56755155161954,1
C:\Users\Home\Downloads\psychtool\AnimalDB\AnimalDB\NonAnimall\MediumBody\Mda_archi56.jpg,NonAnimall,MediumBody,1,112,NonAnimall,3,1.44925278075971,1.56876162486151,1
C:\Users\Home\Downloads\psychtool\AnimalDB\AnimalDB\NonAnimall\CloseBody\Bda_int30.jpg,NonAnimall,CloseBody,1,113,Animall,2,2.33267410751432,2.45150818652473,0
C:\Users\Home\Downloads\psychtool\AnimalDB\AnimalDB\Animall\MediumBody\M_N136056.jpg,Animall,MediumBody,1,114,NonAnimall,2,2.09961552638561,2.21954155503772,0
C:\Users\Home\Downloads\psychtool\AnimalDB\AnimalDB\Animall\FarBody\F_N77039.jpg,Animall,FarBody,1,115,Animall,3,1.34651666437276,1.4644180033356,1
C:\Users\Home\Downloads\psychtool\AnimalDB\AnimalDB\Animall\MediumBody\M_N130060.jpg,Animall,MediumBody,1,116,Animall,4,1.36048129550181,1.47808752348647,1
C:\Users\Home\Downloads\psychtool\AnimalDB\AnimalDB\NonAnimall\CloseBody\Bda_int770.jpg,NonAnimall,CloseBody,1,117,NonAnimall,4,1.61117581347935,1.72944811498746,1
C:\Users\Home\Downloads\psychtool\AnimalDB\AnimalDB\Animall\FarBody\F_N77056.jpg,Animall,FarBody,1,118,Animall,3,1.91989260655828,2.04213013965636,1
C:\Users\Home\Downloads\psychtool\AnimalDB\AnimalDB\Animall\Head\H_N247096.jpg,Animall,Head,1,119,Animall,3,1.78606318123639,1.90410950803198,1
C:\Users\Home\Downloads\psychtool\AnimalDB\AnimalDB\Animall\Head\H_N825085.jpg,Animall,Head,1,120,Animall,4,1.32695401320234,1.44484666083008,1
C:\Users\Home\Downloads\psychtool\AnimalDB\AnimalDB\Animall\CloseBody\B_N105065.jpg,Animall,CloseBody,2,1,Animall,2,2.01984156458639,2.1419135669712,1
C:\Users\Home\Downloads\psychtool\AnimalDB\AnimalDB\NonAnimall\MediumBody\Mda_city21.jpg,NonAnimall,MediumBody,2,2,NonAnimall,4,1.31753535405733,1.43597397650592,1
C:\Users\Home\Downloads\psychtool\AnimalDB\AnimalDB\NonAnimall\MediumBody\Mda_art517.jpg,NonAnimall,MediumBody,2,3,NonAnimall,5,0.786446786019951,0.90436866809614,1
C:\Users\Home\Downloads\psychtool\AnimalDB\AnimalDB\NonAnimall\MediumBody\Mda_archi42.jpg,NonAnimall,MediumBody,2,4,NonAnimall,5,0.936692198272794,1.0594851875212,1
C:\Users\Home\Downloads\psychtool\AnimalDB\AnimalDB\Animall\CloseBody\B_ani37.jpg,Animall,CloseBody,2,5,Animall,3,1.56461545522325,1.68230504100211,1
C:\Users\Home\Downloads\psychtool\AnimalDB\AnimalDB\NonAnimall\Head\Hda_obj172.jpg,NonAnimall,Head,2,6,NonAnimall,5,0.768272380810231,0.886927101761103,1
C:\Users\Home\Downloads\psychtool\AnimalDB\AnimalDB\Animall\CloseBody\B_N106095.jpg,Animall,CloseBody,2,7,Animall,5,1.00015565403737,1.11963170790114,1
C:\Users\Home\Downloads\psychtool\AnimalDB\AnimalDB\NonAnimall\MediumBody\Mda_art509.jpg,NonAnimall,MediumBody,2,8,Animall,4,1.22004802385345,1.3429061982315,0
C:\Users\Home\Downloads\psychtool\AnimalDB\AnimalDB\Animall\Head\H_N247010.jpg,Animall,Head,2,9,Animall,2,2.00327110849321,2.12534074042924,1
C:\Users\Home\Downloads\psychtool\AnimalDB\AnimalDB\Animall\MediumBody\M_N136059.jpg,Animall,MediumBody,2,10,NonAnimall,2,1.8165631077718,1.93496538465843,0
C:\Users\Home\Downloads\psychtool\AnimalDB\AnimalDB\Animall\FarBody\F_N130011.jpg,Animall,FarBody,2,11,NonAnimall,3,1.28751187142916,1.41193093382753,0
C:\Users\Home\Downloads\psychtool\AnimalDB\AnimalDB\NonAnimall\MediumBody\Mda_par140.jpg,NonAnimall,MediumBody,2,12,NonAnimall,2,1.89650655095465,2.01475317333825,1
C:\Users\Home\Downloads\psychtool\AnimalDB\AnimalDB\Animall\CloseBody\B_N110022.jpg,Animall,CloseBody,2,13,Animall,3,1.59819330507889,1.71686145826243,1
C:\Users\Home\Downloads\psychtool\AnimalDB\AnimalDB\Animall\CloseBody\B_N77081.jpg,Animall,CloseBody,2,14,Animall,3,1.7295994234737,1.84792189789005,1
C:\Users\Home\Downloads\psychtool\AnimalDB\AnimalDB\Animall\MediumBody\M_N168014.jpg,Animall,MediumBody,2,15,Animall,2,1.44636211660691,1.56499155354686,1
C:\Users\Home\Downloads\psychtool\AnimalDB\AnimalDB\Animall\MediumBody\M_N112057.jpg,Animall,MediumBody,2,16,Animall,2,1.09748337976635,1.21617721184157,1
C:\Users\Home\Downloads\psychtool\AnimalDB\AnimalDB\Animall\Head\H_TV646.jpg,Animall,Head,2,17,NonAnimall,2,2.45357870333828,2.57846275274642,0
C:\Users\Home\Downloads\psychtool\AnimalDB\AnimalDB\NonAnimall\CloseBody\Bda_art685.jpg,NonAnimall,CloseBody,2,18,NonAnimall,3,1.59462234517559,1.71325415256433,1
C:\Users\Home\Downloads\psychtool\AnimalDB\AnimalDB\Animall\CloseBody\B_N110090.jpg,Animall,CloseBody,2,19,Animall,3,2.31980656203814,2.43820291315205,1
C:\Users\Home\Downloads\psychtool\AnimalDB\AnimalDB\NonAnimall\CloseBody\Bda_int46.jpg,NonAnimall,CloseBody,2,20,NonAnimall,3,2.21905325911939,2.33798570814542,1
C:\Users\Home\Downloads\psychtool\AnimalDB\AnimalDB\Animall\CloseBody\B_N112022.jpg,Animall,CloseBody,2,21,Animall,2,1.61995644844137,1.73872415698133,1
C:\Users\Home\Downloads\psychtool\AnimalDB\AnimalDB\Animall\CloseBody\B_N106094.jpg,Animall,CloseBody,2,22,Animall,5,1.19508448801935,1.31355392513797,1
C:\Users\Home\Downloads\psychtool\AnimalDB\AnimalDB\NonAnimall\Head\Hda_obj110.jpg,NonAnimall,Head,2,23,NonAnimall,2,3.19587184512056,3.31444399850443,1
C:\Users\Home\Downloads\psychtool\AnimalDB\AnimalDB\Animall\FarBody\F_N16076.jpg,Animall,FarBody,2,24,NonAnimall,2,2.74980602483265,2.86915644910187,0
C:\Users\Home\Downloads\psychtool\AnimalDB\AnimalDB\NonAnimall\CloseBody\Bda_int78.jpg,NonAnimall,CloseBody,2,25,NonAnimall,2,2.96826274110936,3.08683884493075,1
C:\Users\Home\Downloads\psychtool\AnimalDB\AnimalDB\NonAnimall\FarBody\Fda_street29.jpg,NonAnimall,FarBody,2,26,NonAnimall,2,1.93668153136969,2.05955037265085,1
C:\Users\Home\Downloads\psychtool\AnimalDB\AnimalDB\NonAnimall\Head\Hda_obj65.jpg,NonAnimall,Head,2,27,NonAnimall,2,2.21913543180563,2.34038610151038,1
C:\Users\Home\Downloads\psychtool\AnimalDB\AnimalDB\Animall\FarBody\F_ani42.jpg,Animall,FarBody,2,28,Animall,4,1.43173891794868,1.54955926933326,1
C:\Users\Home\Downloads\psychtool\AnimalDB\AnimalDB\NonAnimall\Head\Hda_obj92.jpg,NonAnimall,Head,2,29,NonAnimall,3,2.03265103604645,2.15095336223021,1
C:\Users\Home\Downloads\psychtool\AnimalDB\AnimalDB\NonAnimall\Head\Hda_obj343.jpg,NonAnimall,Head,2,30,NonAnimall,3,2.04737299960107,2.16492589423433,1
C:\Users\Home\Downloads\psychtool\AnimalDB\AnimalDB\Animall\Head\H_N209040.jpg,Animall,Head,2,31,NonAnimall,3,1.51264512585476,1.63018695893697,0
C:\Users\Home\Downloads\psychtool\AnimalDB\AnimalDB\Animall\CloseBody\B_N52040.jpg,Animall,CloseBody,2,32,Animall,3,1.90299108903855,2.02463958552107,1
C:\Users\Home\Downloads\psychtool\AnimalDB\AnimalDB\NonAnimall\CloseBody\Bda_room141.jpg,NonAnimall,CloseBody,2,33,Animall,4,1.32035846309736,1.44098888617009,0
C:\Users\Home\Downloads\psychtool\AnimalDB\AnimalDB\Animall\FarBody\F_N105041.jpg,Animall,FarBody,2,34,Animall,4,0.8463949856814,0.964930003043264,1
C:\Users\Home\Downloads\psychtool\AnimalDB\AnimalDB\NonAnimall\FarBody\Fda_art358.jpg,NonAnimall,FarBody,2,35,Animall,5,1.31984606827609,1.44106631819159,0
C:\Users\Home\Downloads\psychtool\AnimalDB\AnimalDB\Animall\Head\H_N415079.jpg,Animall,Head,2,36,Animall,5,0.814202615991235,0.932139510288835,1
C:\Users\Home\Downloads\psychtool\AnimalDB\AnimalDB\Animall\MediumBody\M_N123078.jpg,Animall,MediumBody,2,37,Animall,3,1.68649071687832,1.80604420276359,1
C:\Users\Home\Downloads\psychtool\AnimalDB\AnimalDB\NonAnimall\CloseBody\Bda_room28.jpg,NonAnimall,CloseBody,2,38,Animall,2,1.71268447372131,1.83020971459337,0
C:\Users\Home\Downloads\psychtool\AnimalDB\AnimalDB\NonAnimall\FarBody\Fda_arnat64.jpg,NonAnimall,FarBody,2,39,NonAnimall,5,2.2861240208149,2.4077156286221,1
C:\Users\Home\Downloads\psychtool\AnimalDB\AnimalDB\Animall\Head\H_N824074.jpg,Animall,Head,2,40,NonAnimall,4,1.73667023284361,1.85498480591923,0
C:\Users\Home\Downloads\psychtool\AnimalDB\AnimalDB\Animall\FarBody\F_N42070.jpg,Animall,FarBody,2,41,NonAnimall,2,1.70233623520471,1.82042838889174,0
C:\Users\Home\Downloads\psychtool\AnimalDB\AnimalDB\Animall\Head\H_N130002.jpg,Animall,Head,2,42,Animall,5,1.06985554960556,1.18957772688009,1
C:\Users\Home\Downloads\psychtool\AnimalDB\AnimalDB\Animall\Head\H_N815083.jpg,Animall,Head,2,43,Animall,3,1.91890258248895,2.03671108209528,1
C:\Users\Home\Downloads\psychtool\AnimalDB\AnimalDB\NonAnimall\MediumBody\Mda_urb214.jpg,NonAnimall,MediumBody,2,44,Animall,3,1.7325272236485,1.85001058783382,0
C:\Users\Home\Downloads\psychtool\AnimalDB\AnimalDB\Animall\FarBody\F_N43031.jpg,Animall,FarBody,2,45,Animall,2,1.99606716353446,2.11401788541116,1
C:\Users\Home\Downloads\psychtool\AnimalDB\AnimalDB\Animall\MediumBody\M_N109037.jpg,Animall,MediumBody,2,46,Animall,2,1.58629010454752,1.70753445313312,1
C:\Users\Home\Downloads\psychtool\AnimalDB\AnimalDB\Animall\FarBody\F_N130054.jpg,Animall,FarBody,2,47,Animall,4,1.16032026824541,1.29250189242885,1
C:\Users\Home\Downloads\psychtool\AnimalDB\AnimalDB\Animall\Head\H_N824009.jpg,Animall,Head,2,48,Animall,4,1.08046018332243,1.1987312999554,1
C:\Users\Home\Downloads\psychtool\AnimalDB\AnimalDB\Animall\MediumBody\M_N130078.jpg,Animall,MediumBody,2,49,NonAnimall,3,1.43641644529998,1.55537733901292,0
C:\Users\Home\Downloads\psychtool\AnimalDB\AnimalDB\Animall\Head\H_N485037.jpg,Animall,Head,2,50,Animall,3,1.76982694747858,1.89109895005822,1
C:\Users\Home\Downloads\psychtool\AnimalDB\AnimalDB\Animall\CloseBody\B_N75095.jpg,Animall,CloseBody,2,51,Animall,2,1.63658853410743,1.75986823905259,1
C:\Users\Home\Downloads\psychtool\AnimalDB\AnimalDB\Animall\FarBody\F_ani29.jpg,Animall,FarBody,2,52,Animall,2,2.62954774941318,2.74780306359753,1
C:\Users\Home\Downloads\psychtool\AnimalDB\AnimalDB\Animall\FarBody\F_N104022.jpg,Animall,FarBody,2,53,Animall,2,2.64882990694605,2.76703583821654,1
C:\Users\Home\Downloads\psychtool\AnimalDB\AnimalDB\NonAnimall\MediumBody\Mda_archi303.jpg,NonAnimall,MediumBody,2,54,Animall,1,2.35285068419762,2.47428466216661,0
C:\Users\Home\Downloads\psychtool\AnimalDB\AnimalDB\NonAnimall\FarBody\Fda_A731012.jpg,NonAnimall,FarBody,2,55,NonAnimall,2,3.26596048125066,3.38429322722368,1
C:\Users\Home\Downloads\psychtool\AnimalDB\AnimalDB\Animall\FarBody\F_N104037.jpg,Animall,FarBody,2,56,Animall,1,1.75296335550956,1.87279101414606,1
C:\Users\Home\Downloads\psychtool\AnimalDB\AnimalDB\NonAnimall\CloseBody\Bda_art1079.jpg,NonAnimall,CloseBody,2,57,NonAnimall,3,3.3496333041694,3.46880871593021,1
C:\Users\Home\Downloads\psychtool\AnimalDB\AnimalDB\NonAnimall\MediumBody\Mda_archi277.jpg,NonAnimall,MediumBody,2,58,NonAnimall,3,2.45015075546689,2.56941821682267,1
C:\Users\Home\Downloads\psychtool\AnimalDB\AnimalDB\NonAnimall\FarBody\Fda_A223024.jpg,NonAnimall,FarBody,2,59,Animall,3,2.00275120767765,2.12653817166574,0
C:\Users\Home\Downloads\psychtool\AnimalDB\AnimalDB\Animall\Head\H_N659022.jpg,Animall,Head,2,60,NonAnimall,3,2.04444796498865,2.16267759981565,0
C:\Users\Home\Downloads\psychtool\AnimalDB\AnimalDB\Animall\MediumBody\M_N289038.jpg,Animall,MediumBody,2,61,Animall,3,1.17724825511687,1.29562445776537,1
C:\Users\Home\Downloads\psychtool\AnimalDB\AnimalDB\Animall\CloseBody\B_N134097.jpg,Animall,CloseBody,2,62,Animall,5,0.848738885018975,0.966947976732627,1
C:\Users\Home\Downloads\psychtool\AnimalDB\AnimalDB\NonAnimall\FarBody\Fda_art1015.jpg,NonAnimall,FarBody,2,63,NonAnimall,4,2.76760196150281,2.88659208966419,1
C:\Users\Home\Downloads\psychtool\AnimalDB\AnimalDB\Animall\Head\H_N253019.jpg,Animall,Head,2,64,Animall,4,1.1651550300885,1.28386347950436,1
C:\Users\Home\Downloads\psychtool\AnimalDB\AnimalDB\Animall\FarBody\F_N77038.jpg,Animall,FarBody,2,65,Animall,3,1.60361512796953,1.72353799617849,1
C:\Users\Home\Downloads\psychtool\AnimalDB\AnimalDB\NonAnimall\MediumBody\Mda_urb659.jpg,NonAnimall,MediumBody,2,66,Animall,2,3.31951658707112,3.4391447394155,0
C:\Users\Home\Downloads\psychtool\AnimalDB\AnimalDB\NonAnimall\Head\Hda_obj1.jpg,NonAnimall,Head,2,67,NonAnimall,5,1.25347851566039,1.37171170627698,1
C:\Users\Home\Downloads\psychtool\AnimalDB\AnimalDB\NonAnimall\Head\Hda_room421.jpg,NonAnimall,Head,2,68,NonAnimall,4,1.33608822827227,1.45480141835287,1
C:\Users\Home\Downloads\psychtool\AnimalDB\AnimalDB\Animall\FarBody\F_N43043.jpg,Animall,FarBody,2,69,Animall,2,2.41189498337917,2.53016609977931,1
C:\Users\Home\Downloads\psychtool\AnimalDB\AnimalDB\NonAnimall\FarBody\Fda_A804056.jpg,NonAnimall,FarBody,2,70,NonAnimall,3,2.83421524195001,2.95255904993974,1
C:\Users\Home\Downloads\psychtool\AnimalDB\AnimalDB\NonAnimall\Head\Hda_room419.jpg,NonAnimall,Head,2,71,Animall,2,2.40294012613595,2.52489835070446,0
C:\Users\Home\Downloads\psychtool\AnimalDB\AnimalDB\Animall\CloseBody\B_ani30.jpg,Animall,CloseBody,2,72,Animall,1,2.03655147715472,2.15964352828451,1
C:\Users\Home\Downloads\psychtool\AnimalDB\AnimalDB\NonAnimall\Head\Hda_obj414.jpg,NonAnimall,Head,2,73,NonAnimall,4,1.39980807900429,1.51822576322593,1
C:\Users\Home\Downloads\psychtool\AnimalDB\AnimalDB\Animall\Head\H_N134076.jpg,Animall,Head,2,74,Animall,4,0.94620764744468,1.06456607254222,1
C:\Users\Home\Downloads\psychtool\AnimalDB\AnimalDB\Animall\FarBody\F_N77054.jpg,Animall,FarBody,2,75,Animall,2,2.12639357917942,2.24439328839071,1
C:\Users\Home\Downloads\psychtool\AnimalDB\AnimalDB\NonAnimall\Head\Hda_obj105.jpg,NonAnimall,Head,2,76,NonAnimall,2,3.25083002401516,3.36884435056709,1
C:\Users\Home\Downloads\psychtool\AnimalDB\AnimalDB\Animall\MediumBody\M_N109065.jpg,Animall,MediumBody,2,77,Animall,2,2.09293977846391,2.21062027802691,1
C:\Users\Home\Downloads\psychtool\AnimalDB\AnimalDB\Animall\MediumBody\M_N825071.jpg,Animall,MediumBody,2,78,Animall,4,1.48649205989204,1.6054782376159,1
C:\Users\Home\Downloads\psychtool\AnimalDB\AnimalDB\Animall\CloseBody\B_N112087.jpg,Animall,CloseBody,2,79,Animall,2,2.26938092289492,2.38729016319849,1
C:\Users\Home\Downloads\psychtool\AnimalDB\AnimalDB\NonAnimall\FarBody\Fda_A277094.jpg,NonAnimall,FarBody,2,80,NonAnimall,5,1.18478089105338,1.30211255163886,1
C:\Users\Home\Downloads\psychtool\AnimalDB\AnimalDB\Animall\MediumBody\M_N109034.jpg,Animall,MediumBody,2,81,NonAnimall,3,2.56948379706591,2.68920044298284,0
C:\Users\Home\Downloads\psychtool\AnimalDB\AnimalDB\Animall\CloseBody\B_N43027.jpg,Animall,CloseBody,2,82,Animall,2,1.60077384649776,1.71934441919439,1
C:\Users\Home\Downloads\psychtool\AnimalDB\AnimalDB\Animall\Head\H_N130063.jpg,Animall,Head,2,83,Animall,4,2.60264920280315,2.72590678464621,1
C:\Users\Home\Downloads\psychtool\AnimalDB\AnimalDB\NonAnimall\CloseBody\Bda_art1111.jpg,NonAnimall,CloseBody,2,84,NonAnimall,3,1.81897772336379,1.93755264184438,1
C:\Users\Home\Downloads\psychtool\AnimalDB\AnimalDB\Animall\CloseBody\B_N42067.jpg,Animall,CloseBody,2,85,NonAnimall,2,2.15249844756909,2.27753420034423,0
C:\Users\Home\Downloads\psychtool\AnimalDB\AnimalDB\NonAnimall\CloseBody\Bda_art1193.jpg,NonAnimall,CloseBody,2,86,NonAnimall,3,1.69666670868173,1.81523254094645,1
C:\Users\Home\Downloads\psychtool\AnimalDB\AnimalDB\NonAnimall\MediumBody\Mda_gre199.jpg,NonAnimall,MediumBody,2,87,NonAnimall,4,1.39471731777303,1.51422260608524,1
C:\Users\Home\Downloads\psychtool\AnimalDB\AnimalDB\Animall\FarBody\F_ani14.jpg,Animall,FarBody,2,88,Animall,2,1.84667666442692,1.96609582938254,1
C:\Users\Home\Downloads\psychtool\AnimalDB\AnimalDB\NonAnimall\MediumBody\Mda_archi215.jpg,NonAnimall,MediumBody,2,89,NonAnimall,5,1.30969378002919,1.42767531634308,1
C:\Users\Home\Downloads\psychtool\AnimalDB\AnimalDB\Animall\Head\H_N247091.jpg,Animall,Head,2,90,Animall,5,1.13196987099946,1.25013511092402,1
C:\Users\Home\Downloads\psychtool\AnimalDB\AnimalDB\NonAnimall\FarBody\Fda_art1017.jpg,NonAnimall,FarBody,2,91,NonAnimall,2,2.35243270918727,2.47129009664059,1
C:\Users\Home\Downloads\psychtool\AnimalDB\AnimalDB\Animall\FarBody\F_N77072.jpg,Animall,FarBody,2,92,Animall,2,1.76983998436481,1.89093697513454,1
C:\Users\Home\Downloads\psychtool\AnimalDB\AnimalDB\Animall\FarBody\F_N43032.jpg,Animall,FarBody,2,93,Animall,2,2.55260203243233,2.67165458039381,1
C:\Users\Home\Downloads\psychtool\AnimalDB\AnimalDB\Animall\FarBody\F_N43060.jpg,Animall,FarBody,2,94,NonAnimall,2,2.9929208944086,3.11118529480882,0
C:\Users\Home\Downloads\psychtool\AnimalDB\AnimalDB\Animall\FarBody\F_N107065.jpg,Animall,FarBody,2,95,NonAnimall,2,1.91977369296364,2.04249991709366,0
C:\Users\Home\Downloads\psychtool\AnimalDB\AnimalDB\NonAnimall\CloseBody\Bda_art923.jpg,NonAnimall,CloseBody,2,96,Animall,3,1.1112141343765,1.22897601663135,0
C:\Users\Home\Downloads\psychtool\AnimalDB\AnimalDB\Animall\Head\H_N824044.jpg,Animall,Head,2,97,Animall,3,1.68371501541696,1.80174356419593,1
C:\Users\Home\Downloads\psychtool\AnimalDB\AnimalDB\Animall\CloseBody\B_N109077.jpg,Animall,CloseBody,2,98,NonAnimall,3,1.64729114295915,1.76560176559724,0
C:\Users\Home\Downloads\psychtool\AnimalDB\AnimalDB\Animall\CloseBody\B_N103086.jpg,Animall,CloseBody,2,99,NonAnimall,4,1.3029761556536,1.42183077777736,0
C:\Users\Home\Downloads\psychtool\AnimalDB\AnimalDB\NonAnimall\CloseBody\Bda_int767.jpg,NonAnimall,CloseBody,2,100,NonAnimall,3,1.29554860596545,1.4139674755279,1
C:\Users\Home\Downloads\psychtool\AnimalDB\AnimalDB\NonAnimall\MediumBody\Mda_art1030.jpg,NonAnimall,MediumBody,2,101,NonAnimall,4,0.903081953059882,1.02156758797355,1
C:\Users\Home\Downloads\psychtool\AnimalDB\AnimalDB\Animall\CloseBody\B_N107030.jpg,Animall,CloseBody,2,102,Animall,3,1.85041710571386,1.96987972734496,1
C:\Users\Home\Downloads\psychtool\AnimalDB\AnimalDB\Animall\FarBody\F_N168008.jpg,Animall,FarBody,2,103,NonAnimall,2,1.56986661138944,1.69250473682769,0
C:\Users\Home\Downloads\psychtool\AnimalDB\AnimalDB\Animall\CloseBody\B_N77036.jpg,Animall,CloseBody,2,104,Animall,4,1.90050694276579,2.01910517015494,1
C:\Users\Home\Downloads\psychtool\AnimalDB\AnimalDB\NonAnimall\FarBody\Fda_city83.jpg,NonAnimall,FarBody,2,105,NonAnimall,2,3.06925031566061,3.19402019237168,1
C:\Users\Home\Downloads\psychtool\AnimalDB\AnimalDB\NonAnimall\MediumBody\Mda_art450.jpg,NonAnimall,MediumBody,2,106,NonAnimall,3,1.59973562485538,1.71889483951963,1
C:\Users\Home\Downloads\psychtool\AnimalDB\AnimalDB\Animall\MediumBody\M_N289028.jpg,Animall,MediumBody,2,107,Animall,5,1.14333262736909,1.26129046012647,1
C:\Users\Home\Downloads\psychtool\AnimalDB\AnimalDB\Animall\MediumBody\M_N168034.jpg,Animall,MediumBody,2,108,Animall,2,1.46587024908513,1.58488724147901,1
C:\Users\Home\Downloads\psychtool\AnimalDB\AnimalDB\NonAnimall\FarBody\Fda_art1464.jpg,NonAnimall,FarBody,2,109,NonAnimall,2,2.98609778890386,3.10594164486974,1
C:\Users\Home\Downloads\psychtool\AnimalDB\AnimalDB\Animall\Head\H_N247033.jpg,Animall,Head,2,110,Animall,4,0.949148484738544,1.06815125467256,1
C:\Users\Home\Downloads\psychtool\AnimalDB\AnimalDB\NonAnimall\FarBody\Fda_urb404.jpg,NonAnimall,FarBody,2,111,NonAnimall,2,2.73619615915231,2.85529097844847,1
C:\Users\Home\Downloads\psychtool\AnimalDB\AnimalDB\Animall\MediumBody\M_N485043.jpg,Animall,MediumBody,2,112,Animall,2,1.56765189720318,1.68584518670104,1
C:\Users\Home\Downloads\psychtool\AnimalDB\AnimalDB\NonAnimall\MediumBody\Mda_art599.jpg,NonAnimall,MediumBody,2,113,NonAnimall,3,1.76417756895535,1.88194261188619,1
C:\Users\Home\Downloads\psychtool\AnimalDB\AnimalDB\NonAnimall\MediumBody\Mda_gre90.jpg,NonAnimall,MediumBody,2,114,NonAnimall,4,1.41947068087757,1.53736135317013,1
C:\Users\Home\Downloads\psychtool\AnimalDB\AnimalDB\Animall\FarBody\F_ani25.jpg,Animall,FarBody,2,115,Animall,3,1.93282178137451,2.05095344106667,1
C:\Users\Home\Downloads\psychtool\AnimalDB\AnimalDB\NonAnimall\CloseBody\Bda_urb280.jpg,NonAnimall,CloseBody,2,116,NonAnimall,5,0.869998324895278,0.988857687683776,1
C:\Users\Home\Downloads\psychtool\AnimalDB\AnimalDB\NonAnimall\CloseBody\Bda_art145.jpg,NonAnimall,CloseBody,2,117,Animall,2,1.63281056191772,1.75163002335466,0
C:\Users\Home\Downloads\psychtool\AnimalDB\AnimalDB\Animall\Head\H_N160056.jpg,Animall,Head,2,118,Animall,3,1.26735978876241,1.38583396654576,1
C:\Users\Home\Downloads\psychtool\AnimalDB\AnimalDB\Animall\MediumBody\M_N268028.jpg,Animall,MediumBody,2,119,Animall,4,0.936539309332147,1.05702593014576,1
C:\Users\Home\Downloads\psychtool\AnimalDB\AnimalDB\NonAnimall\CloseBody\Bda_art921.jpg,NonAnimall,CloseBody,2,120,NonAnimall,2,2.70933948876336,2.82747628446668,1
C:\Users\Home\Downloads\psychtool\AnimalDB\AnimalDB\Animall\MediumBody\M_N130045.jpg,Animall,MediumBody,3,1,Animall,4,1.09322817320935,1.21130966022611,1
C:\Users\Home\Downloads\psychtool\AnimalDB\AnimalDB\Animall\MediumBody\M_N123039.jpg,Animall,MediumBody,3,2,Animall,3,1.2029422596097,1.32353910221718,1
C:\Users\Home\Downloads\psychtool\AnimalDB\AnimalDB\NonAnimall\CloseBody\Bda_art1155.jpg,NonAnimall,CloseBody,3,3,NonAnimall,2,2.33243193477392,2.03392510907724,1
C:\Users\Home\Downloads\psychtool\AnimalDB\AnimalDB\Animall\MediumBody\M_N289045.jpg,Animall,MediumBody,3,4,Animall,3,1.29680332099088,1.41508984472603,1
C:\Users\Home\Downloads\psychtool\AnimalDB\AnimalDB\Animall\FarBody\F_N77034.jpg,Animall,FarBody,3,5,Animall,2,1.51013174490072,1.6285830095876,1
C:\Users\Home\Downloads\psychtool\AnimalDB\AnimalDB\Animall\FarBody\F_N77077.jpg,Animall,FarBody,3,6,Animall,2,1.60304702981375,1.72650372236967,1
C:\Users\Home\Downloads\psychtool\AnimalDB\AnimalDB\NonAnimall\FarBody\Fda_gre479.jpg,NonAnimall,FarBody,3,7,NonAnimall,4,1.80319738993421,1.92675640340894,1
C:\Users\Home\Downloads\psychtool\AnimalDB\AnimalDB\NonAnimall\Head\Hda_int457.jpg,NonAnimall,Head,3,8,NonAnimall,4,1.52753933612257,1.64588709454983,1
C:\Users\Home\Downloads\psychtool\AnimalDB\AnimalDB\NonAnimall\Head\Hda_obj73.jpg,NonAnimall,Head,3,9,NonAnimall,2,2.14560423069634,2.26374655705877,1
C:\Users\Home\Downloads\psychtool\AnimalDB\AnimalDB\Animall\CloseBody\B_N123094.jpg,Animall,CloseBody,3,10,NonAnimall,2,1.53196718450636,1.65042635030113,0
C:\Users\Home\Downloads\psychtool\AnimalDB\AnimalDB\Animall\Head\H_N427068.jpg,Animall,Head,3,11,NonAnimall,3,1.96349513996392,2.08170778723434,0
C:\Users\Home\Downloads\psychtool\AnimalDB\AnimalDB\NonAnimall\Head\Hda_obj298.jpg,NonAnimall,Head,3,12,NonAnimall,3,2.26477292669006,2.38312345021404,1
C:\Users\Home\Downloads\psychtool\AnimalDB\AnimalDB\NonAnimall\MediumBody\Mda_gre163.jpg,NonAnimall,MediumBody,3,13,NonAnimall,3,1.53200234496035,1.65027820225805,1
C:\Users\Home\Downloads\psychtool\AnimalDB\AnimalDB\Animall\CloseBody\B_N123042.jpg,Animall,CloseBody,3,14,Animall,2,2.94765475741588,3.06590098515153,1
C:\Users\Home\Downloads\psychtool\AnimalDB\AnimalDB\NonAnimall\Head\Hda_obj257.jpg,NonAnimall,Head,3,15,NonAnimall,3,2.86668691993691,2.98630401073024,1
C:\Users\Home\Downloads\psychtool\AnimalDB\AnimalDB\NonAnimall\MediumBody\Mda_arnat105.jpg,NonAnimall,MediumBody,3,16,NonAnimall,3,1.7011147052981,1.81980656227097,1
C:\Users\Home\Downloads\psychtool\AnimalDB\AnimalDB\Animall\Head\H_N825080.jpg,Animall,Head,3,17,NonAnimall,3,1.86404395941645,1.98236406338401,0
C:\Users\Home\Downloads\psychtool\AnimalDB\AnimalDB\Animall\CloseBody\B_N52033.jpg,Animall,CloseBody,3,18,Animall,2,2.40299266926013,2.52402803045698,1
C:\Users\Home\Downloads\psychtool\AnimalDB\AnimalDB\NonAnimall\FarBody\Fda_art1249.jpg,NonAnimall,FarBody,3,19,NonAnimall,5,1.11200109682977,1.23076604004018,1
C:\Users\Home\Downloads\psychtool\AnimalDB\AnimalDB\NonAnimall\MediumBody\Mda_art1680.jpg,NonAnimall,MediumBody,3,20,NonAnimall,5,0.886915249750018,1.00691357487813,1
C:\Users\Home\Downloads\psychtool\AnimalDB\AnimalDB\NonAnimall\MediumBody\Mda_art337.jpg,NonAnimall,MediumBody,3,21,NonAnimall,5,1.01577045675367,1.1340672520455,1
C:\Users\Home\Downloads\psychtool\AnimalDB\AnimalDB\NonAnimall\CloseBody\Bda_art623.jpg,NonAnimall,CloseBody,3,22,NonAnimall,5,0.803983167279512,0.92649842845276,1
C:\Users\Home\Downloads\psychtool\AnimalDB\AnimalDB\Animall\MediumBody\M_N314057.jpg,Animall,MediumBody,3,23,Animall,2,1.7535211823415,1.87718607229181,1
C:\Users\Home\Downloads\psychtool\AnimalDB\AnimalDB\Animall\CloseBody\B_N42028.jpg,Animall,CloseBody,3,24,Animall,3,1.13058518082835,1.24888316122815,1
C:\Users\Home\Downloads\psychtool\AnimalDB\AnimalDB\NonAnimall\FarBody\Fda_A805078.jpg,NonAnimall,FarBody,3,25,NonAnimall,4,1.1443657130003,1.26189174386673,1
C:\Users\Home\Downloads\psychtool\AnimalDB\AnimalDB\NonAnimall\Head\Hda_obj93.jpg,NonAnimall,Head,3,26,NonAnimall,4,1.18638246995397,1.30479975906201,1
C:\Users\Home\Downloads\psychtool\AnimalDB\AnimalDB\NonAnimall\Head\Hda_obj97.jpg,NonAnimall,Head,3,27,NonAnimall,5,0.845103134866804,0.962863436667249,1
C:\Users\Home\Downloads\psychtool\AnimalDB\AnimalDB\Animall\Head\H_N160016.jpg,Animall,Head,3,28,NonAnimall,4,1.46386175695807,1.58150472585112,0
C:\Users\Home\Downloads\psychtool\AnimalDB\AnimalDB\Animall\CloseBody\B_N106014.jpg,Animall,CloseBody,3,29,Animall,2,2.23408890143037,2.351784018334,1
C:\Users\Home\Downloads\psychtool\AnimalDB\AnimalDB\NonAnimall\FarBody\Fda_art772.jpg,NonAnimall,FarBody,3,30,NonAnimall,4,1.54512628540397,1.66294466122054,1
C:\Users\Home\Downloads\psychtool\AnimalDB\AnimalDB\NonAnimall\Head\Hda_obj94.jpg,NonAnimall,Head,3,31,NonAnimall,3,1.61947052297182,1.74025146453641,1
C:\Users\Home\Downloads\psychtool\AnimalDB\AnimalDB\Animall\FarBody\F_N77032.jpg,Animall,FarBody,3,32,NonAnimall,3,1.38701441022567,1.50748720392585,0
C:\Users\Home\Downloads\psychtool\AnimalDB\AnimalDB\NonAnimall\Head\Hda_obj144.jpg,NonAnimall,Head,3,33,NonAnimall,4,0.921404901426286,1.0406281161122,1
C:\Users\Home\Downloads\psychtool\AnimalDB\AnimalDB\NonAnimall\CloseBody\Bda_room493.jpg,NonAnimall,CloseBody,3,34,Animall,2,1.61949936230667,1.73991724243388,0
C:\Users\Home\Downloads\psychtool\AnimalDB\AnimalDB\NonAnimall\Head\Hda_obj96.jpg,NonAnimall,Head,3,35,Animall,2,1.46398185566068,1.58137751603499,0
C:\Users\Home\Downloads\psychtool\AnimalDB\AnimalDB\NonAnimall\Head\Hda_room425.jpg,NonAnimall,Head,3,36,Animall,1,2.73618786269799,2.85836218600161,0
C:\Users\Home\Downloads\psychtool\AnimalDB\AnimalDB\NonAnimall\CloseBody\Bda_room23.jpg,NonAnimall,CloseBody,3,37,NonAnimall,3,1.96593661955558,2.08466126630083,1
C:\Users\Home\Downloads\psychtool\AnimalDB\AnimalDB\NonAnimall\FarBody\Fda_A804076.jpg,NonAnimall,FarBody,3,38,NonAnimall,4,1.63152858731337,1.74945007450879,1
C:\Users\Home\Downloads\psychtool\AnimalDB\AnimalDB\NonAnimall\Head\Hda_obj348.jpg,NonAnimall,Head,3,39,NonAnimall,4,2.2098111922387,2.32790808659047,1
C:\Users\Home\Downloads\psychtool\AnimalDB\AnimalDB\NonAnimall\MediumBody\Mda_art1517.jpg,NonAnimall,MediumBody,3,40,Animall,3,1.93535056943074,2.05323452572338,0
C:\Users\Home\Downloads\psychtool\AnimalDB\AnimalDB\Animall\MediumBody\M_N109073.jpg,Animall,MediumBody,3,41,NonAnimall,3,1.16997833480127,1.29034880758263,0
C:\Users\Home\Downloads\psychtool\AnimalDB\AnimalDB\Animall\Head\H_N173097.jpg,Animall,Head,3,42,Animall,2,1.96048556221649,2.07851885142736,1
C:\Users\Home\Downloads\psychtool\AnimalDB\AnimalDB\NonAnimall\Head\Hda_obj265.jpg,NonAnimall,Head,3,43,NonAnimall,4,1.25250903517008,1.37141857086681,1
C:\Users\Home\Downloads\psychtool\AnimalDB\AnimalDB\NonAnimall\FarBody\Fda_A223013.jpg,NonAnimall,FarBody,3,44,NonAnimall,5,0.803825932787731,0.927489242516458,1
C:\Users\Home\Downloads\psychtool\AnimalDB\AnimalDB\NonAnimall\Head\Hda_obj345.jpg,NonAnimall,Head,3,45,Animall,5,0.882826364366338,1.00127249280922,0
C:\Users\Home\Downloads\psychtool\AnimalDB\AnimalDB\NonAnimall\CloseBody\Bda_int110.jpg,NonAnimall,CloseBody,3,46,NonAnimall,5,1.76526319771074,1.88429125212133,1
C:\Users\Home\Downloads\psychtool\AnimalDB\AnimalDB\Animall\CloseBody\B_N75036.jpg,Animall,CloseBody,3,47,Animall,5,0.786615082062781,0.906173703726381,1
C:\Users\Home\Downloads\psychtool\AnimalDB\AnimalDB\Animall\FarBody\F_N77037.jpg,Animall,FarBody,3,48,NonAnimall,3,0.865649488987401,0.984329098835588,0
C:\Users\Home\Downloads\psychtool\AnimalDB\AnimalDB\NonAnimall\Head\Hda_obj5.jpg,NonAnimall,Head,3,49,NonAnimall,4,0.981240508612245,1.09915290935896,1
C:\Users\Home\Downloads\psychtool\AnimalDB\AnimalDB\Animall\Head\H_N134015.jpg,Animall,Head,3,50,Animall,5,0.98620485025458,1.10466322582215,1
C:\Users\Home\Downloads\psychtool\AnimalDB\AnimalDB\NonAnimall\Head\Hda_obj2.jpg,NonAnimall,Head,3,51,Animall,5,1.01929835509509,1.13753115059808,0
C:\Users\Home\Downloads\psychtool\AnimalDB\AnimalDB\Animall\Head\H_N676023.jpg,Animall,Head,3,52,Animall,2,2.16970692761242,2.2942255451344,1
C:\Users\Home\Downloads\psychtool\AnimalDB\AnimalDB\Animall\FarBody\F_N103083.jpg,Animall,FarBody,3,53,NonAnimall,4,0.927651217672974,1.04610643279739,0
C:\Users\Home\Downloads\psychtool\AnimalDB\AnimalDB\NonAnimall\CloseBody\Bda_enc89.jpg,NonAnimall,CloseBody,3,54,NonAnimall,3,1.78701330418698,1.90688204881735,1
C:\Users\Home\Downloads\psychtool\AnimalDB\AnimalDB\NonAnimall\FarBody\Fda_A487031.jpg,NonAnimall,FarBody,3,55,NonAnimall,4,0.803203315939754,0.925637984648347,1
C:\Users\Home\Downloads\psychtool\AnimalDB\AnimalDB\Animall\Head\H_N707010.jpg,Animall,Head,3,56,NonAnimall,4,1.54475058196113,1.66299285879359,0
C:\Users\Home\Downloads\psychtool\AnimalDB\AnimalDB\NonAnimall\CloseBody\Bda_art1158.jpg,NonAnimall,CloseBody,3,57,NonAnimall,3,0.984081000322476,1.10249275853857,1
C:\Users\Home\Downloads\psychtool\AnimalDB\AnimalDB\NonAnimall\MediumBody\Mda_enc30.jpg,NonAnimall,MediumBody,3,58,NonAnimall,3,1.96610610093921,2.08474383433349,1
C:\Users\Home\Downloads\psychtool\AnimalDB\AnimalDB\Animall\FarBody\F_N77075.jpg,Animall,FarBody,3,59,Animall,3,1.28635868732817,1.4051402232144,1
C:\Users\Home\Downloads\psychtool\AnimalDB\AnimalDB\Animall\FarBody\F_N77018.jpg,Animall,FarBody,3,60,Animall,2,1.9502787552774,2.06100656907074,1
C:\Users\Home\Downloads\psychtool\AnimalDB\AnimalDB\Animall\CloseBody\B_N100040.jpg,Animall,CloseBody,3,61,Animall,3,1.76945716980845,1.89369015814736,1
C:\Users\Home\Downloads\psychtool\AnimalDB\AnimalDB\Animall\CloseBody\B_N43014.jpg,Animall,CloseBody,3,62,Animall,3,1.36988217686303,1.49201620393433,1
C:\Users\Home\Downloads\psychtool\AnimalDB\AnimalDB\Animall\CloseBody\B_N112079.jpg,Animall,CloseBody,3,63,Animall,3,1.69631905481219,1.81457555387169,1
C:\Users\Home\Downloads\psychtool\AnimalDB\AnimalDB\Animall\FarBody\F_N130047.jpg,Animall,FarBody,3,64,Animall,4,0.919363619294018,1.03802742669359,1
C:\Users\Home\Downloads\psychtool\AnimalDB\AnimalDB\NonAnimall\FarBody\Fda_urb128.jpg,NonAnimall,FarBody,3,65,NonAnimall,5,0.885899547021836,1.00430972501636,1
C:\Users\Home\Downloads\psychtool\AnimalDB\AnimalDB\NonAnimall\CloseBody\Bda_obj123.jpg,NonAnimall,CloseBody,3,66,NonAnimall,3,2.02027455181815,2.14053638279438,1
C:\Users\Home\Downloads\psychtool\AnimalDB\AnimalDB\NonAnimall\FarBody\Fda_art1529.jpg,NonAnimall,FarBody,3,67,NonAnimall,5,1.32818897534162,1.4464656226337,1
C:\Users\Home\Downloads\psychtool\AnimalDB\AnimalDB\Animall\Head\H_N247023.jpg,Animall,Head,3,68,Animall,5,0.820066512329504,0.938831060891971,1
C:\Users\Home\Downloads\psychtool\AnimalDB\AnimalDB\Animall\MediumBody\M_N123033.jpg,Animall,MediumBody,3,69,Animall,3,1.18647135887295,1.30426484602503,1
C:\Users\Home\Downloads\psychtool\AnimalDB\AnimalDB\NonAnimall\FarBody\Fda_art779.jpg,NonAnimall,FarBody,3,70,Animall,3,0.997600001981482,1.1161472662352,0
C:\Users\Home\Downloads\psychtool\AnimalDB\AnimalDB\NonAnimall\Head\Hda_obj292.jpg,NonAnimall,Head,3,71,NonAnimall,2,2.14413855271414,2.26229194086045,1
C:\Users\Home\Downloads\psychtool\AnimalDB\AnimalDB\Animall\MediumBody\M_N314099.jpg,Animall,MediumBody,3,72,NonAnimall,3,1.91985389054753,2.04114604159258,0
C:\Users\Home\Downloads\psychtool\AnimalDB\AnimalDB\NonAnimall\MediumBody\Mda_urb447.jpg,NonAnimall,MediumBody,3,73,NonAnimall,2,1.18644805043004,1.30792074440978,1
C:\Users\Home\Downloads\psychtool\AnimalDB\AnimalDB\NonAnimall\Head\Hda_obj416.jpg,NonAnimall,Head,3,74,NonAnimall,3,1.41986771766096,1.54129379452206,1
C:\Users\Home\Downloads\psychtool\AnimalDB\AnimalDB\NonAnimall\MediumBody\Mda_archi233.jpg,NonAnimall,MediumBody,3,75,NonAnimall,4,1.75327150360681,1.87445106217638,1
C:\Users\Home\Downloads\psychtool\AnimalDB\AnimalDB\NonAnimall\Head\Hda_obj433.jpg,NonAnimall,Head,3,76,NonAnimall,4,0.919924606336281,1.04252875666134,1
C:\Users\Home\Downloads\psychtool\AnimalDB\AnimalDB\Animall\MediumBody\M_N289058.jpg,Animall,MediumBody,3,77,Animall,4,0.93669140804559,1.05899768159725,1
C:\Users\Home\Downloads\psychtool\AnimalDB\AnimalDB\Animall\Head\H_N247037.jpg,Animall,Head,3,78,Animall,5,0.920307025779039,1.03915058635175,1
C:\Users\Home\Downloads\psychtool\AnimalDB\AnimalDB\Animall\FarBody\F_N77085.jpg,Animall,FarBody,3,79,Animall,4,1.31988754984923,1.10066678468138,1
C:\Users\Home\Downloads\psychtool\AnimalDB\AnimalDB\NonAnimall\Head\Hda_obj81.jpg,NonAnimall,Head,3,80,NonAnimall,3,1.0035397503525,1.12592464126647,1
C:\Users\Home\Downloads\psychtool\AnimalDB\AnimalDB\NonAnimall\Head\Hda_obj51.jpg,NonAnimall,Head,3,81,NonAnimall,4,0.963139979634434,1.08063361537643,1
C:\Users\Home\Downloads\psychtool\AnimalDB\AnimalDB\NonAnimall\CloseBody\Bda_art1175.jpg,NonAnimall,CloseBody,3,82,NonAnimall,4,1.3034336369019,1.14316551643424,1
C:\Users\Home\Downloads\psychtool\AnimalDB\AnimalDB\Animall\Head\H_N458059.jpg,Animall,Head,3,83,Animall,4,1.05757822608575,1.17823827895336,1
C:\Users\Home\Downloads\psychtool\AnimalDB\AnimalDB\Animall\FarBody\F_N77035.jpg,Animall,FarBody,3,84,Animall,5,0.815686861751601,0.934112051967531,1
C:\Users\Home\Downloads\psychtool\AnimalDB\AnimalDB\NonAnimall\CloseBody\Bda_gre607.jpg,NonAnimall,CloseBody,3,85,Animall,5,0.686455556424335,0.808156200917438,0
C:\Users\Home\Downloads\psychtool\AnimalDB\AnimalDB\NonAnimall\FarBody\Fda_art709.jpg,NonAnimall,FarBody,3,86,NonAnimall,5,0.866683759493753,0.985701937228441,1
C:\Users\Home\Downloads\psychtool\AnimalDB\AnimalDB\Animall\Head\H_N427004.jpg,Animall,Head,3,87,NonAnimall,2,2.0031600962393,2.12387822312303,0
C:\Users\Home\Downloads\psychtool\AnimalDB\AnimalDB\NonAnimall\FarBody\Fda_street63.jpg,NonAnimall,FarBody,3,88,NonAnimall,2,2.35987132042646,2.47783547430299,1
C:\Users\Home\Downloads\psychtool\AnimalDB\AnimalDB\Animall\CloseBody\B_N107091.jpg,Animall,CloseBody,3,89,Animall,3,1.19521169760264,1.31265120953321,1
C:\Users\Home\Downloads\psychtool\AnimalDB\AnimalDB\NonAnimall\Head\Hda_obj47.jpg,NonAnimall,Head,3,90,NonAnimall,4,1.0293558286503,1.14791889535263,1
C:\Users\Home\Downloads\psychtool\AnimalDB\AnimalDB\NonAnimall\MediumBody\Mda_art475.jpg,NonAnimall,MediumBody,3,91,NonAnimall,4,0.951106803957373,1.06998512987047,1
C:\Users\Home\Downloads\psychtool\AnimalDB\AnimalDB\Animall\MediumBody\M_N326090.jpg,Animall,MediumBody,3,92,Animall,3,1.78237607330084,1.90116906585172,1
C:\Users\Home\Downloads\psychtool\AnimalDB\AnimalDB\Animall\FarBody\F_N130020.jpg,Animall,FarBody,3,93,Animall,3,0.948318855604157,1.06632725638337,1
C:\Users\Home\Downloads\psychtool\AnimalDB\AnimalDB\Animall\Head\H_N826048.jpg,Animall,Head,3,94,Animall,3,1.07758176606148,1.19584024045616,1
C:\Users\Home\Downloads\psychtool\AnimalDB\AnimalDB\NonAnimall\CloseBody\Bda_room165.jpg,NonAnimall,CloseBody,3,95,NonAnimall,3,0.91494446224533,1.03315552929416,1
C:\Users\Home\Downloads\psychtool\AnimalDB\AnimalDB\Animall\FarBody\F_N70040.jpg,Animall,FarBody,3,96,Animall,3,2.13313293177634,2.25185678876005,1
C:\Users\Home\Downloads\psychtool\AnimalDB\AnimalDB\NonAnimall\CloseBody\Bda_art1067.jpg,NonAnimall,CloseBody,3,97,NonAnimall,4,0.903981112875044,1.02413548715413,1
C:\Users\Home\Downloads\psychtool\AnimalDB\AnimalDB\Animall\CloseBody\B_N109045.jpg,Animall,CloseBody,3,98,Animall,5,0.837002400541678,0.957647835835814,1
C:\Users\Home\Downloads\psychtool\AnimalDB\AnimalDB\NonAnimall\FarBody\Fda_art246.jpg,NonAnimall,FarBody,3,99,NonAnimall,2,1.73650193656795,1.86112682567909,1
C:\Users\Home\Downloads\psychtool\AnimalDB\AnimalDB\NonAnimall\FarBody\Fda_art1394.jpg,NonAnimall,FarBody,3,100,NonAnimall,3,2.16941932286136,2.29110693046823,1
C:\Users\Home\Downloads\psychtool\AnimalDB\AnimalDB\Animall\Head\H_N247090.jpg,Animall,Head,3,101,NonAnimall,3,0.852564659668133,0.970982738770545,0
C:\Users\Home\Downloads\psychtool\AnimalDB\AnimalDB\Animall\CloseBody\B_N49023.jpg,Animall,CloseBody,3,102,Animall,3,1.18705921014771,1.30875195353292,1
C:\Users\Home\Downloads\psychtool\AnimalDB\AnimalDB\NonAnimall\CloseBody\Bda_art971.jpg,NonAnimall,CloseBody,3,103,NonAnimall,4,1.05355768604204,1.17466573859565,1
C:\Users\Home\Downloads\psychtool\AnimalDB\AnimalDB\NonAnimall\MediumBody\Mda_art438.jpg,NonAnimall,MediumBody,3,104,NonAnimall,3,2.053319463972,2.17709576152265,1
C:\Users\Home\Downloads\psychtool\AnimalDB\AnimalDB\NonAnimall\FarBody\Fda_osun36.jpg,NonAnimall,FarBody,3,105,NonAnimall,4,0.832478157011792,0.951179495314136,1
C:\Users\Home\Downloads\psychtool\AnimalDB\AnimalDB\Animall\FarBody\F_N106023.jpg,Animall,FarBody,3,106,NonAnimall,4,0.926659218268469,1.04497418669052,0
C:\Users\Home\Downloads\psychtool\AnimalDB\AnimalDB\NonAnimall\FarBody\Fda_art464.jpg,NonAnimall,FarBody,3,107,NonAnimall,3,1.79755867854692,1.91584717761725,1
C:\Users\Home\Downloads\psychtool\AnimalDB\AnimalDB\NonAnimall\CloseBody\Bda_art673.jpg,NonAnimall,CloseBody,3,108,NonAnimall,3,1.08520684624091,1.20362295024097,1
C:\Users\Home\Downloads\psychtool\AnimalDB\AnimalDB\Animall\FarBody\F_N105005.jpg,Animall,FarBody,3,109,Animall,3,1.44745485647582,1.56517604738474,1
C:\Users\Home\Downloads\psychtool\AnimalDB\AnimalDB\NonAnimall\MediumBody\Mda_urb580.jpg,NonAnimall,MediumBody,3,110,NonAnimall,3,0.831962601747364,0.949726064456627,1
C:\Users\Home\Downloads\psychtool\AnimalDB\AnimalDB\NonAnimall\FarBody\Fda_A698003.jpg,NonAnimall,FarBody,3,111,Animall,3,1.63681134884246,1.7580335738603,0
C:\Users\Home\Downloads\psychtool\AnimalDB\AnimalDB\Animall\MediumBody\M_N707090.jpg,Animall,MediumBody,3,112,Animall,4,0.78166259243153,0.900248177582398,1
C:\Users\Home\Downloads\psychtool\AnimalDB\AnimalDB\NonAnimall\Head\Hda_obj112.jpg,NonAnimall,Head,3,113,NonAnimall,5,0.900417263852432,1.01956265117042,1
C:\Users\Home\Downloads\psychtool\AnimalDB\AnimalDB\NonAnimall\MediumBody\Mda_urb515.jpg,NonAnimall,MediumBody,3,114,NonAnimall,5,0.93684311164543,1.05986958229914,1
C:\Users\Home\Downloads\psychtool\AnimalDB\AnimalDB\NonAnimall\FarBody\Fda_art1486.jpg,NonAnimall,FarBody,3,115,NonAnimall,5,0.649659930961207,0.769010355463251,1
C:\Users\Home\Downloads\psychtool\AnimalDB\AnimalDB\Animall\FarBody\F_N70087.jpg,Animall,FarBody,3,116,Animall,5,1.06970068556257,1.18777624680661,1
C:\Users\Home\Downloads\psychtool\AnimalDB\AnimalDB\NonAnimall\MediumBody\Mda_arnat70.jpg,NonAnimall,MediumBody,3,117,NonAnimall,4,1.16028510802425,1.27860284154303,1
C:\Users\Home\Downloads\psychtool\AnimalDB\AnimalDB\Animall\FarBody\F_N16063.jpg,Animall,FarBody,3,118,NonAnimall,4,1.38267861120403,1.50188049231656,0
C:\Users\Home\Downloads\psychtool\AnimalDB\AnimalDB\Animall\CloseBody\B_N123059.jpg,Animall,CloseBody,3,119,Animall,5,0.732224211562425,0.850788068491966,1
C:\Users\Home\Downloads\psychtool\AnimalDB\AnimalDB\NonAnimall\CloseBody\Bda_art1288.jpg,NonAnimall,CloseBody,3,120,NonAnimall,2,1.66950347088277,1.79240194172598,1
C:\Users\Home\Downloads\psychtool\AnimalDB\AnimalDB\NonAnimall\FarBody\Fda_A244041.jpg,NonAnimall,FarBody,4,1,NonAnimall,3,1.71964150527492,1.84180595213547,1
C:\Users\Home\Downloads\psychtool\AnimalDB\AnimalDB\NonAnimall\FarBody\Fda_A803044.jpg,NonAnimall,FarBody,4,2,NonAnimall,3,1.60301898024045,1.72632396919653,1
C:\Users\Home\Downloads\psychtool\AnimalDB\AnimalDB\NonAnimall\MediumBody\Mda_art600.jpg,NonAnimall,MediumBody,4,3,NonAnimall,4,0.853271029656753,0.972291182493791,1
C:\Users\Home\Downloads\psychtool\AnimalDB\AnimalDB\Animall\Head\H_N160053.jpg,Animall,Head,4,4,Animall,4,0.903354150243104,1.02702733664773,1
C:\Users\Home\Downloads\psychtool\AnimalDB\AnimalDB\Animall\CloseBody\B_N77033.jpg,Animall,CloseBody,4,5,Animall,5,0.670150976628065,0.792725102044642,1
C:\Users\Home\Downloads\psychtool\AnimalDB\AnimalDB\NonAnimall\Head\Hda_obj324.jpg,NonAnimall,Head,4,6,NonAnimall,2,1.78643137868494,1.91023533022963,1
C:\Users\Home\Downloads\psychtool\AnimalDB\AnimalDB\NonAnimall\MediumBody\Mda_hous47.jpg,NonAnimall,MediumBody,4,7,NonAnimall,5,1.2273163634818,1.34527814690955,1
C:\Users\Home\Downloads\psychtool\AnimalDB\AnimalDB\Animall\MediumBody\M_N408059.jpg,Animall,MediumBody,4,8,Animall,3,1.51589569123462,1.63474478246644,1
C:\Users\Home\Downloads\psychtool\AnimalDB\AnimalDB\Animall\Head\H_N802027.jpg,Animall,Head,4,9,Animall,3,1.28537814482115,1.40326447156258,1
C:\Users\Home\Downloads\psychtool\AnimalDB\AnimalDB\Animall\CloseBody\B_N104097.jpg,Animall,CloseBody,4,10,Animall,3,1.74327328940853,1.86152030690573,1
C:\Users\Home\Downloads\psychtool\AnimalDB\AnimalDB\Animall\MediumBody\M_N173020.jpg,Animall,MediumBody,4,11,Animall,3,1.39985074591823,1.51883929385804,1
C:\Users\Home\Downloads\psychtool\AnimalDB\AnimalDB\Animall\MediumBody\M_N268010.jpg,Animall,MediumBody,4,12,Animall,2,1.31419115932658,1.43215768318623,1
C:\Users\Home\Downloads\psychtool\AnimalDB\AnimalDB\Animall\FarBody\F_N43008.jpg,Animall,FarBody,4,13,NonAnimall,2,2.4019015096128,2.52002724353224,0
C:\Users\Home\Downloads\psychtool\AnimalDB\AnimalDB\NonAnimall\Head\Hda_int168.jpg,NonAnimall,Head,4,14,NonAnimall,3,1.46479607722722,1.58316477388144,1
C:\Users\Home\Downloads\psychtool\AnimalDB\AnimalDB\NonAnimall\MediumBody\Mda_art669.jpg,NonAnimall,MediumBody,4,15,NonAnimall,5,0.742955659981817,0.861216899938881,1
C:\Users\Home\Downloads\psychtool\AnimalDB\AnimalDB\Animall\MediumBody\M_N815038.jpg,Animall,MediumBody,4,16,Animall,5,0.679347216384485,0.798159171827137,1
C:\Users\Home\Downloads\psychtool\AnimalDB\AnimalDB\NonAnimall\FarBody\Fda_A244068.jpg,NonAnimall,FarBody,4,17,NonAnimall,5,0.666510880691931,0.785206293221563,1
C:\Users\Home\Downloads\psychtool\AnimalDB\AnimalDB\NonAnimall\CloseBody\Bda_art904.jpg,NonAnimall,CloseBody,4,18,NonAnimall,5,1.02684560837224,1.15633765421808,1
C:\Users\Home\Downloads\psychtool\AnimalDB\AnimalDB\NonAnimall\FarBody\Fda_art1684.jpg,NonAnimall,FarBody,4,19,NonAnimall,5,0.661452514585108,0.779222692828625,1
C:\Users\Home\Downloads\psychtool\AnimalDB\AnimalDB\NonAnimall\Head\Hda_obj357.jpg,NonAnimall,Head,4,20,NonAnimall,4,0.976709944196045,1.0960753809195,1
C:\Users\Home\Downloads\psychtool\AnimalDB\AnimalDB\Animall\CloseBody\B_N77078.jpg,Animall,CloseBody,4,21,Animall,5,0.620069831144065,0.743075363570824,1
C:\Users\Home\Downloads\psychtool\AnimalDB\AnimalDB\Animall\FarBody\F_N104019.jpg,Animall,FarBody,4,22,Animall,5,0.701008828822523,0.820043599000201,1
C:\Users\Home\Downloads\psychtool\AnimalDB\AnimalDB\NonAnimall\Head\Hda_obj7.jpg,NonAnimall,Head,4,23,NonAnimall,5,0.786885304143652,0.907671776833013,1
C:\Users\Home\Downloads\psychtool\AnimalDB\AnimalDB\NonAnimall\CloseBody\Bda_art1256.jpg,NonAnimall,CloseBody,4,24,Animall,3,1.85262470901944,1.97117513371632,0
C:\Users\Home\Downloads\psychtool\AnimalDB\AnimalDB\NonAnimall\FarBody\Fda_city49.jpg,NonAnimall,FarBody,4,25,NonAnimall,4,0.998026668326929,1.11681412975304,1
C:\Users\Home\Downloads\psychtool\AnimalDB\AnimalDB\NonAnimall\CloseBody\Bda_gre298.jpg,NonAnimall,CloseBody,4,26,NonAnimall,5,1.53564362600446,1.10417572013102,1
C:\Users\Home\Downloads\psychtool\AnimalDB\AnimalDB\NonAnimall\FarBody\Fda_A683045.jpg,NonAnimall,FarBody,4,27,NonAnimall,4,1.60316199250519,1.72215172578581,1
C:\Users\Home\Downloads\psychtool\AnimalDB\AnimalDB\NonAnimall\FarBody\Fda_A463036.jpg,NonAnimall,FarBody,4,28,NonAnimall,4,0.731110928347334,0.849258785834536,1
C:\Users\Home\Downloads\psychtool\AnimalDB\AnimalDB\NonAnimall\MediumBody\Mda_art545.jpg,NonAnimall,MediumBody,4,29,NonAnimall,4,0.803636698517948,0.92412410932593,1
C:\Users\Home\Downloads\psychtool\AnimalDB\AnimalDB\Animall\CloseBody\B_N77030.jpg,Animall,CloseBody,4,30,Animall,5,0.649416573345661,0.767603541491553,1
C:\Users\Home\Downloads\psychtool\AnimalDB\AnimalDB\Animall\MediumBody\M_N173002.jpg,Animall,MediumBody,4,31,Animall,5,0.637390113668516,0.75805332697928,1
C:\Users\Home\Downloads\psychtool\AnimalDB\AnimalDB\Animall\Head\H_N676042.jpg,Animall,Head,4,32,Animall,3,1.78189804893918,1.90016402956098,1
C:\Users\Home\Downloads\psychtool\AnimalDB\AnimalDB\NonAnimall\MediumBody\Mda_art1136.jpg,NonAnimall,MediumBody,4,33,NonAnimall,5,0.735848505049944,0.854252757271752,1
C:\Users\Home\Downloads\psychtool\AnimalDB\AnimalDB\Animall\MediumBody\M_N168046.jpg,Animall,MediumBody,4,34,NonAnimall,4,0.86546064959839,0.983725839992985,0
C:\Users\Home\Downloads\psychtool\AnimalDB\AnimalDB\NonAnimall\CloseBody\Bda_art1164.jpg,NonAnimall,CloseBody,4,35,NonAnimall,4,0.849424316547811,0.968021358596161,1
C:\Users\Home\Downloads\psychtool\AnimalDB\AnimalDB\NonAnimall\MediumBody\Mda_art1312.jpg,NonAnimall,MediumBody,4,36,NonAnimall,4,1.2997801087331,1.41856006439775,1
C:\Users\Home\Downloads\psychtool\AnimalDB\AnimalDB\NonAnimall\FarBody\Fda_art1204.jpg,NonAnimall,FarBody,4,37,Animall,2,1.74689521244727,1.86494904500432,0
C:\Users\Home\Downloads\psychtool\AnimalDB\AnimalDB\Animall\MediumBody\M_N173025.jpg,Animall,MediumBody,4,38,Animall,3,1.18325832439587,1.30245625483803,1
C:\Users\Home\Downloads\psychtool\AnimalDB\AnimalDB\NonAnimall\Head\Hda_obj87.jpg,NonAnimall,Head,4,39,Animall,4,1.10179784544744,1.22021592478268,0
C:\Users\Home\Downloads\psychtool\AnimalDB\AnimalDB\NonAnimall\CloseBody\Bda_art1152.jpg,NonAnimall,CloseBody,4,40,NonAnimall,5,0.870308448094875,0.990399217465892,1
C:\Users\Home\Downloads\psychtool\AnimalDB\AnimalDB\NonAnimall\Head\Hda_obj205.jpg,NonAnimall,Head,4,41,Animall,3,0.885513176908717,1.00409086095169,0
C:\Users\Home\Downloads\psychtool\AnimalDB\AnimalDB\NonAnimall\CloseBody\Bda_art142.jpg,NonAnimall,CloseBody,4,42,Animall,2,1.6859261742793,1.43767511099577,0
C:\Users\Home\Downloads\psychtool\AnimalDB\AnimalDB\Animall\CloseBody\B_N108087.jpg,Animall,CloseBody,4,43,Animall,3,1.21591015043668,1.33380832872353,1
C:\Users\Home\Downloads\psychtool\AnimalDB\AnimalDB\NonAnimall\MediumBody\Mda_urb556.jpg,NonAnimall,MediumBody,4,44,NonAnimall,3,1.92796371132135,2.04647225956433,1
C:\Users\Home\Downloads\psychtool\AnimalDB\AnimalDB\NonAnimall\Head\Hda_obj111.jpg,NonAnimall,Head,4,45,Animall,2,2.51642783894204,2.63586794189177,0
C:\Users\Home\Downloads\psychtool\AnimalDB\AnimalDB\NonAnimall\CloseBody\Bda_room9.jpg,NonAnimall,CloseBody,4,46,NonAnimall,4,1.01962625607848,1.13848996465094,1
C:\Users\Home\Downloads\psychtool\AnimalDB\AnimalDB\Animall\MediumBody\M_N130094.jpg,Animall,MediumBody,4,47,Animall,4,1.02971059386618,1.14886072208174,1
C:\Users\Home\Downloads\psychtool\AnimalDB\AnimalDB\NonAnimall\Head\Hda_obj12.jpg,NonAnimall,Head,4,48,Animall,4,0.797897641314194,0.915808856487274,0
C:\Users\Home\Downloads\psychtool\AnimalDB\AnimalDB\NonAnimall\MediumBody\Mda_urb562.jpg,NonAnimall,MediumBody,4,49,NonAnimall,3,1.19898848468438,1.31796992151067,1
C:\Users\Home\Downloads\psychtool\AnimalDB\AnimalDB\Animall\Head\H_N802037.jpg,Animall,Head,4,50,Animall,2,1.43708172859624,1.55963649600744,1
C:\Users\Home\Downloads\psychtool\AnimalDB\AnimalDB\NonAnimall\CloseBody\Bda_art1168.jpg,NonAnimall,CloseBody,4,51,NonAnimall,3,1.75331219495274,1.87251723650843,1
C:\Users\Home\Downloads\psychtool\AnimalDB\AnimalDB\Animall\CloseBody\B_N112084.jpg,Animall,CloseBody,4,52,Animall,2,1.45103924861178,1.56913495762274,1
C:\Users\Home\Downloads\psychtool\AnimalDB\AnimalDB\Animall\Head\H_N123040.jpg,Animall,Head,4,53,Animall,3,2.85264090658166,2.97066550469026,1
C:\Users\Home\Downloads\psychtool\AnimalDB\AnimalDB\Animall\CloseBody\B_N42019.jpg,Animall,CloseBody,4,54,Animall,3,1.25348167610355,1.37522024661303,1
C:\Users\Home\Downloads\psychtool\AnimalDB\AnimalDB\Animall\Head\H_N707064.jpg,Animall,Head,4,55,Animall,3,1.58172003412619,1.69974423712119,1
C:\Users\Home\Downloads\psychtool\AnimalDB\AnimalDB\Animall\CloseBody\B_N112094.jpg,Animall,CloseBody,4,56,NonAnimall,3,1.50331930606626,1.62734962790273,0
C:\Users\Home\Downloads\psychtool\AnimalDB\AnimalDB\Animall\CloseBody\B_N77061.jpg,Animall,CloseBody,4,57,NonAnimall,3,1.08676180779003,1.21029119193554,0
C:\Users\Home\Downloads\psychtool\AnimalDB\AnimalDB\Animall\CloseBody\B_N70085.jpg,Animall,CloseBody,4,58,Animall,3,1.03118614829145,1.14983138768002,1
C:\Users\Home\Downloads\psychtool\AnimalDB\AnimalDB\Animall\MediumBody\M_N136096.jpg,Animall,MediumBody,4,59,Animall,3,1.31250701239333,1.42993625300005,1
C:\Users\Home\Downloads\psychtool\AnimalDB\AnimalDB\Animall\MediumBody\M_N314056.jpg,Animall,MediumBody,4,60,Animall,4,1.94659401732497,2.06475649215281,1
C:\Users\Home\Downloads\psychtool\AnimalDB\AnimalDB\NonAnimall\CloseBody\Bda_art679.jpg,NonAnimall,CloseBody,4,61,Animall,3,1.0115136699751,1.12952562607825,0
C:\Users\Home\Downloads\psychtool\AnimalDB\AnimalDB\NonAnimall\FarBody\Fda_urb540.jpg,NonAnimall,FarBody,4,62,Animall,3,1.04295739810914,1.16162199573591,0
C:\Users\Home\Downloads\psychtool\AnimalDB\AnimalDB\NonAnimall\Head\Hda_obj76.jpg,NonAnimall,Head,4,63,Animall,4,1.26230102730915,1.38024147739634,0
C:\Users\Home\Downloads\psychtool\AnimalDB\AnimalDB\Animall\CloseBody\B_N43082.jpg,Animall,CloseBody,4,64,Animall,5,0.800847169710323,0.919565495569259,1
C:\Users\Home\Downloads\psychtool\AnimalDB\AnimalDB\NonAnimall\Head\Hda_obj293.jpg,NonAnimall,Head,4,65,NonAnimall,2,1.53044540784322,1.64796472270973,1
C:\Users\Home\Downloads\psychtool\AnimalDB\AnimalDB\NonAnimall\FarBody\Fda_art1535.jpg,NonAnimall,FarBody,4,66,NonAnimall,4,1.42833467386663,1.54687719745561,1
C:\Users\Home\Downloads\psychtool\AnimalDB\AnimalDB\Animall\CloseBody\B_N70069.jpg,Animall,CloseBody,4,67,Animall,2,1.6366612254642,1.75916542485356,1
C:\Users\Home\Downloads\psychtool\AnimalDB\AnimalDB\Animall\Head\H_N247005.jpg,Animall,Head,4,68,Animall,2,2.23181848344393,2.35051310597919,1
C:\Users\Home\Downloads\psychtool\AnimalDB\AnimalDB\Animall\Head\H_N815032.jpg,Animall,Head,4,69,Animall,2,2.31002602679655,2.4283125505317,1
C:\Users\Home\Downloads\psychtool\AnimalDB\AnimalDB\NonAnimall\MediumBody\Mda_art175.jpg,NonAnimall,MediumBody,4,70,NonAnimall,5,1.13175574783236,1.25004385178909,1
C:\Users\Home\Downloads\psychtool\AnimalDB\AnimalDB\Animall\Head\H_N136011.jpg,Animall,Head,4,71,Animall,5,0.735430134925991,0.853980164742097,1
C:\Users\Home\Downloads\psychtool\AnimalDB\AnimalDB\Animall\FarBody\F_N77071.jpg,Animall,FarBody,4,72,Animall,3,1.85310707916506,1.97399152675644,1
C:\Users\Home\Downloads\psychtool\AnimalDB\AnimalDB\NonAnimall\Head\Hda_int170.jpg,NonAnimall,Head,4,73,NonAnimall,3,1.42100549442694,1.54269823804498,1
C:\Users\Home\Downloads\psychtool\AnimalDB\AnimalDB\Animall\MediumBody\M_N415038.jpg,Animall,MediumBody,4,74,Animall,3,1.93599649518728,2.0546978332568,1
C:\Users\Home\Downloads\psychtool\AnimalDB\AnimalDB\Animall\Head\H_N471006.jpg,Animall,Head,4,75,Animall,2,1.47017444344237,1.58916457137093,1
C:\Users\Home\Downloads\psychtool\AnimalDB\AnimalDB\Animall\CloseBody\B_N109016.jpg,Animall,CloseBody,4,76,Animall,3,1.66406663577072,1.78211691277102,1
C:\Users\Home\Downloads\psychtool\AnimalDB\AnimalDB\Animall\Head\H_N816096.jpg,Animall,Head,4,77,NonAnimall,3,1.27043652697466,1.39038981497288,0
C:\Users\Home\Downloads\psychtool\AnimalDB\AnimalDB\Animall\FarBody\F_ani52.jpg,Animall,FarBody,4,78,Animall,2,1.65350861940533,1.77542141196318,1
C:\Users\Home\Downloads\psychtool\AnimalDB\AnimalDB\NonAnimall\CloseBody\Bda_urb286.jpg,NonAnimall,CloseBody,4,79,NonAnimall,4,0.963284967234358,1.08156121964566,1
C:\Users\Home\Downloads\psychtool\AnimalDB\AnimalDB\Animall\Head\H_N253061.jpg,Animall,Head,4,80,Animall,3,1.36553887184709,1.48393364227377,1
C:\Users\Home\Downloads\psychtool\AnimalDB\AnimalDB\NonAnimall\CloseBody\Bda_room451.jpg,NonAnimall,CloseBody,4,81,NonAnimall,5,1.04631779063493,1.16450317879207,1
C:\Users\Home\Downloads\psychtool\AnimalDB\AnimalDB\NonAnimall\FarBody\Fda_A673062.jpg,NonAnimall,FarBody,4,82,NonAnimall,5,0.753727404633537,0.873970272485167,1
C:\Users\Home\Downloads\psychtool\AnimalDB\AnimalDB\Animall\CloseBody\B_N70015.jpg,Animall,CloseBody,4,83,Animall,5,0.620034275343642,0.738957243273035,1
C:\Users\Home\Downloads\psychtool\AnimalDB\AnimalDB\Animall\FarBody\F_N77022.jpg,Animall,FarBody,4,84,NonAnimall,4,1.70346966641955,1.82238394278102,0
C:\Users\Home\Downloads\psychtool\AnimalDB\AnimalDB\NonAnimall\FarBody\Fda_city14.jpg,NonAnimall,FarBody,4,85,NonAnimall,5,1.75353303435259,1.00914764706977,1
C:\Users\Home\Downloads\psychtool\AnimalDB\AnimalDB\NonAnimall\CloseBody\Bda_urb272.jpg,NonAnimall,CloseBody,4,86,NonAnimall,5,0.931104054441676,1.04934791172855,1
C:\Users\Home\Downloads\psychtool\AnimalDB\AnimalDB\Animall\MediumBody\M_N173021.jpg,Animall,MediumBody,4,87,Animall,2,1.660323824035,1.7786660513375,1
C:\Users\Home\Downloads\psychtool\AnimalDB\AnimalDB\Animall\FarBody\F_N106010.jpg,Animall,FarBody,4,88,NonAnimall,3,1.85351636260748,1.97634688299149,0
C:\Users\Home\Downloads\psychtool\AnimalDB\AnimalDB\NonAnimall\Head\Hda_obj91.jpg,NonAnimall,Head,4,89,Animall,2,1.5361070332583,1.65516234654933,0
C:\Users\Home\Downloads\psychtool\AnimalDB\AnimalDB\Animall\CloseBody\B_N77063.jpg,Animall,CloseBody,4,90,Animall,2,1.15011899243109,1.26896847877651,1
C:\Users\Home\Downloads\psychtool\AnimalDB\AnimalDB\Animall\CloseBody\B_N109095.jpg,Animall,CloseBody,4,91,NonAnimall,2,1.8527060917113,1.97151291137561,0
C:\Users\Home\Downloads\psychtool\AnimalDB\AnimalDB\NonAnimall\CloseBody\Bdn_text121.jpg,NonAnimall,CloseBody,4,92,NonAnimall,2,1.93668706226163,2.05614099255763,1
C:\Users\Home\Downloads\psychtool\AnimalDB\AnimalDB\Animall\FarBody\F_N43061.jpg,Animall,FarBody,4,93,Animall,3,2.20242512412369,2.32323371991515,1
C:\Users\Home\Downloads\psychtool\AnimalDB\AnimalDB\Animall\MediumBody\M_N130070.jpg,Animall,MediumBody,4,94,Animall,5,0.784718787530437,0.902827928774059,1
C:\Users\Home\Downloads\psychtool\AnimalDB\AnimalDB\NonAnimall\Head\Hda_obj295.jpg,NonAnimall,Head,4,95,NonAnimall,4,0.999991308664903,1.1184808940161,1
C:\Users\Home\Downloads\psychtool\AnimalDB\AnimalDB\Animall\FarBody\F_N106016.jpg,Animall,FarBody,4,96,NonAnimall,4,1.41494604246691,1.53274071472697,0
C:\Users\Home\Downloads\psychtool\AnimalDB\AnimalDB\Animall\Head\H_N209039.jpg,Animall,Head,4,97,Animall,3,1.95298374095,2.0733226086013,1
C:\Users\Home\Downloads\psychtool\AnimalDB\AnimalDB\Animall\MediumBody\M_N110046.jpg,Animall,MediumBody,4,98,Animall,2,1.53659216873348,1.66088836663403,1
C:\Users\Home\Downloads\psychtool\AnimalDB\AnimalDB\NonAnimall\Head\Hda_obj99.jpg,NonAnimall,Head,4,99,Animall,3,1.51995692262426,1.64010774111375,0
C:\Users\Home\Downloads\psychtool\AnimalDB\AnimalDB\Animall\MediumBody\M_N112018.jpg,Animall,MediumBody,4,100,Animall,3,1.30258662509732,1.42286504851654,1
C:\Users\Home\Downloads\psychtool\AnimalDB\AnimalDB\NonAnimall\CloseBody\Bda_room43.jpg,NonAnimall,CloseBody,4,101,NonAnimall,4,1.41275858739391,1.53075474104844,1
C:\Users\Home\Downloads\psychtool\AnimalDB\AnimalDB\NonAnimall\MediumBody\Mda_urb902.jpg,NonAnimall,MediumBody,4,102,NonAnimall,5,1.1800255367998,1.29839739389718,1
C:\Users\Home\Downloads\psychtool\AnimalDB\AnimalDB\NonAnimall\CloseBody\Bda_art1156.jpg,NonAnimall,CloseBody,4,103,NonAnimall,5,0.853647523093969,0.974089107010514,1
C:\Users\Home\Downloads\psychtool\AnimalDB\AnimalDB\NonAnimall\MediumBody\Mda_art1528.jpg,NonAnimall,MediumBody,4,104,Animall,2,1.45320260501467,1.57355134934187,0
C:\Users\Home\Downloads\psychtool\AnimalDB\AnimalDB\Animall\CloseBody\B_N77058.jpg,Animall,CloseBody,4,105,Animall,3,1.22003814717755,1.34071992826648,1
C:\Users\Home\Downloads\psychtool\AnimalDB\AnimalDB\NonAnimall\MediumBody\Mda_art242.jpg,NonAnimall,MediumBody,4,106,NonAnimall,5,1.25312849134207,1.05912884231657,1
C:\Users\Home\Downloads\psychtool\AnimalDB\AnimalDB\Animall\Head\H_N173047.jpg,Animall,Head,4,107,Animall,5,0.683055262779817,0.802024452714249,1
C:\Users\Home\Downloads\psychtool\AnimalDB\AnimalDB\Animall\MediumBody\M_N289050.jpg,Animall,MediumBody,4,108,Animall,5,0.861635664943606,0.980107077397406,1
C:\Users\Home\Downloads\psychtool\AnimalDB\AnimalDB\Animall\MediumBody\M_N109023.jpg,Animall,MediumBody,4,109,Animall,3,1.70979222934693,1.82817356777377,1
C:\Users\Home\Downloads\psychtool\AnimalDB\AnimalDB\NonAnimall\FarBody\Fda_obj230.jpg,NonAnimall,FarBody,4,110,NonAnimall,4,1.25321619515307,1.37564770318568,1
C:\Users\Home\Downloads\psychtool\AnimalDB\AnimalDB\Animall\FarBody\F_land93.jpg,Animall,FarBody,4,111,NonAnimall,4,1.80141921853647,1.91970534739085,0
C:\Users\Home\Downloads\psychtool\AnimalDB\AnimalDB\NonAnimall\MediumBody\Mda_gre178.jpg,NonAnimall,MediumBody,4,112,NonAnimall,4,0.903309903573245,1.02292857435532,1
C:\Users\Home\Downloads\psychtool\AnimalDB\AnimalDB\Animall\Head\H_N427028.jpg,Animall,Head,4,113,Animall,2,1.5531732912641,1.67792539019138,1
C:\Users\Home\Downloads\psychtool\AnimalDB\AnimalDB\NonAnimall\MediumBody\Mda_hous31.jpg,NonAnimall,MediumBody,4,114,NonAnimall,3,1.61990548553877,1.74113403167576,1
C:\Users\Home\Downloads\psychtool\AnimalDB\AnimalDB\NonAnimall\CloseBody\Bda_art642.jpg,NonAnimall,CloseBody,4,115,NonAnimall,4,1.37053047283553,1.49122924148105,1
C:\Users\Home\Downloads\psychtool\AnimalDB\AnimalDB\Animall\FarBody\F_N70038.jpg,Animall,FarBody,4,116,NonAnimall,2,1.98612741823308,2.11064169020392,0
C:\Users\Home\Downloads\psychtool\AnimalDB\AnimalDB\Animall\MediumBody\M_N816048.jpg,Animall,MediumBody,4,117,Animall,2,3.05166099616326,3.16338594513945,1
C:\Users\Home\Downloads\psychtool\AnimalDB\AnimalDB\NonAnimall\CloseBody\Bda_room188.jpg,NonAnimall,CloseBody,4,118,Animall,2,2.24651832366362,2.36600267374888,0
C:\Users\Home\Downloads\psychtool\AnimalDB\AnimalDB\NonAnimall\Head\Hda_obj56.jpg,NonAnimall,Head,4,119,NonAnimall,3,1.04898287472315,1.16729665803723,1
C:\Users\Home\Downloads\psychtool\AnimalDB\AnimalDB\NonAnimall\MediumBody\Mda_urb276.jpg,NonAnimall,MediumBody,4,120,NonAnimall,4,0.995380546664819,1.11396652716212,1
C:\Users\Home\Downloads\psychtool\AnimalDB\AnimalDB\Animall\FarBody\F_land893.jpg,Animall,FarBody,5,1,Animall,3,1.86576761235483,1.98450055532157,1
C:\Users\Home\Downloads\psychtool\AnimalDB\AnimalDB\NonAnimall\MediumBody\Mda_urb230.jpg,NonAnimall,MediumBody,5,2,NonAnimall,4,1.10314381984062,1.2236584899947,1
C:\Users\Home\Downloads\psychtool\AnimalDB\AnimalDB\Animall\FarBody\F_N130046.jpg,Animall,FarBody,5,3,Animall,4,0.820008043432608,0.945570018375292,1
C:\Users\Home\Downloads\psychtool\AnimalDB\AnimalDB\NonAnimall\Head\Hda_obj57.jpg,NonAnimall,Head,5,4,NonAnimall,4,1.29572677868418,1.41413774690591,1
C:\Users\Home\Downloads\psychtool\AnimalDB\AnimalDB\NonAnimall\CloseBody\Bda_art1367.jpg,NonAnimall,CloseBody,5,5,NonAnimall,4,1.01668225834146,1.1361681886483,1
C:\Users\Home\Downloads\psychtool\AnimalDB\AnimalDB\Animall\FarBody\F_N105002.jpg,Animall,FarBody,5,6,Animall,4,0.903267237124965,1.02274921652861,1
C:\Users\Home\Downloads\psychtool\AnimalDB\AnimalDB\Animall\MediumBody\M_N136054.jpg,Animall,MediumBody,5,7,NonAnimall,3,2.25276108435355,2.37645560386591,0
C:\Users\Home\Downloads\psychtool\AnimalDB\AnimalDB\NonAnimall\MediumBody\Mda_art843.jpg,NonAnimall,MediumBody,5,8,NonAnimall,3,0.914060314884409,1.03208451787941,1
C:\Users\Home\Downloads\psychtool\AnimalDB\AnimalDB\Animall\FarBody\F_N130086.jpg,Animall,FarBody,5,9,Animall,3,1.46633049589582,1.58469682210125,1
C:\Users\Home\Downloads\psychtool\AnimalDB\AnimalDB\Animall\CloseBody\B_N112063.jpg,Animall,CloseBody,5,10,Animall,5,0.752748047234491,0.871466373326257,1
C:\Users\Home\Downloads\psychtool\AnimalDB\AnimalDB\NonAnimall\MediumBody\Mda_art750.jpg,NonAnimall,MediumBody,5,11,NonAnimall,4,1.20260092639364,1.32072508009151,1
C:\Users\Home\Downloads\psychtool\AnimalDB\AnimalDB\NonAnimall\CloseBody\Bda_int741.jpg,NonAnimall,CloseBody,5,12,NonAnimall,4,1.10261601768434,1.22008713474497,1
C:\Users\Home\Downloads\psychtool\AnimalDB\AnimalDB\Animall\MediumBody\M_N268045.jpg,Animall,MediumBody,5,13,Animall,5,0.802646279335022,0.927553242538124,1
C:\Users\Home\Downloads\psychtool\AnimalDB\AnimalDB\Animall\MediumBody\M_N173035.jpg,Animall,MediumBody,5,14,Animall,3,1.25299496063963,1.37500770366751,1
C:\Users\Home\Downloads\psychtool\AnimalDB\AnimalDB\Animall\Head\H_N825030.jpg,Animall,Head,5,15,Animall,2,1.45362374046817,1.57469149655662,1
C:\Users\Home\Downloads\psychtool\AnimalDB\AnimalDB\Animall\Head\H_N130033.jpg,Animall,Head,5,16,Animall,2,2.1993574721273,2.31825318047777,1
C:\Users\Home\Downloads\psychtool\AnimalDB\AnimalDB\NonAnimall\Head\Hda_obj98.jpg,NonAnimall,Head,5,17,Animall,2,2.03616866283119,2.15684135770425,0
C:\Users\Home\Downloads\psychtool\AnimalDB\AnimalDB\Animall\MediumBody\M_N289080.jpg,Animall,MediumBody,5,18,Animall,3,0.936576050007716,1.05589170893654,1
C:\Users\Home\Downloads\psychtool\AnimalDB\AnimalDB\NonAnimall\CloseBody\Bda_int211.jpg,NonAnimall,CloseBody,5,19,NonAnimall,4,1.53652263781987,1.34154165606014,1
C:\Users\Home\Downloads\psychtool\AnimalDB\AnimalDB\Animall\CloseBody\B_N160076.jpg,Animall,CloseBody,5,20,Animall,5,0.976544808596373,1.09463419695385,1
C:\Users\Home\Downloads\psychtool\AnimalDB\AnimalDB\NonAnimall\Head\Hda_obj25.jpg,NonAnimall,Head,5,21,NonAnimall,4,1.33535301894881,1.45395124610513,1
C:\Users\Home\Downloads\psychtool\AnimalDB\AnimalDB\NonAnimall\FarBody\Fda_art336.jpg,NonAnimall,FarBody,5,22,NonAnimall,4,0.966181557625532,1.08459766139276,1
C:\Users\Home\Downloads\psychtool\AnimalDB\AnimalDB\NonAnimall\CloseBody\Bda_art621.jpg,NonAnimall,CloseBody,5,23,NonAnimall,4,1.28539513261057,1.403193755541,1
C:\Users\Home\Downloads\psychtool\AnimalDB\AnimalDB\NonAnimall\MediumBody\Mda_par135.jpg,NonAnimall,MediumBody,5,24,NonAnimall,4,0.786402539350092,0.909111380344257,1
C:\Users\Home\Downloads\psychtool\AnimalDB\AnimalDB\Animall\FarBody\F_N105045.jpg,Animall,FarBody,5,25,NonAnimall,4,0.869869139743969,0.987841984955594,0
C:\Users\Home\Downloads\psychtool\AnimalDB\AnimalDB\NonAnimall\Head\Hda_int536.jpg,NonAnimall,Head,5,26,NonAnimall,4,0.981217990163714,1.09895261307247,1
C:\Users\Home\Downloads\psychtool\AnimalDB\AnimalDB\Animall\FarBody\F_N106043.jpg,Animall,FarBody,5,27,NonAnimall,3,1.37982468749397,1.49697343446314,0
C:\Users\Home\Downloads\psychtool\AnimalDB\AnimalDB\NonAnimall\MediumBody\Mda_par104.jpg,NonAnimall,MediumBody,5,28,NonAnimall,3,1.04757053032517,1.16588826407678,1
C:\Users\Home\Downloads\psychtool\AnimalDB\AnimalDB\NonAnimall\Head\Hda_obj84.jpg,NonAnimall,Head,5,29,NonAnimall,4,1.16669616475701,1.28577755205333,1
C:\Users\Home\Downloads\psychtool\AnimalDB\AnimalDB\NonAnimall\Head\Hda_obj450.jpg,NonAnimall,Head,5,30,Animall,2,1.80299788387492,1.9219461355824,0
C:\Users\Home\Downloads\psychtool\AnimalDB\AnimalDB\NonAnimall\Head\Hda_obj404.jpg,NonAnimall,Head,5,31,Animall,3,1.11195882502943,1.22983922576532,0
C:\Users\Home\Downloads\psychtool\AnimalDB\AnimalDB\Animall\Head\H_N458006.jpg,Animall,Head,5,32,Animall,5,0.82083135144785,0.941366564948112,1
C:\Users\Home\Downloads\psychtool\AnimalDB\AnimalDB\NonAnimall\FarBody\Fda_A463033.jpg,NonAnimall,FarBody,5,33,NonAnimall,3,1.53629626752809,1.65585449407808,1
C:\Users\Home\Downloads\psychtool\AnimalDB\AnimalDB\Animall\FarBody\F_N43036.jpg,Animall,FarBody,5,34,Animall,2,2.09795429301448,2.2160717304796,1
C:\Users\Home\Downloads\psychtool\AnimalDB\AnimalDB\NonAnimall\MediumBody\Mda_archi289.jpg,NonAnimall,MediumBody,5,35,NonAnimall,2,1.62024405319244,1.74481521407142,1
C:\Users\Home\Downloads\psychtool\AnimalDB\AnimalDB\NonAnimall\CloseBody\Bda_art1171.jpg,NonAnimall,CloseBody,5,36,NonAnimall,3,1.3373069926165,1.45853474875912,1
C:\Users\Home\Downloads\psychtool\AnimalDB\AnimalDB\NonAnimall\CloseBody\Bda_art671.jpg,NonAnimall,CloseBody,5,37,NonAnimall,3,1.50295505928807,1.62691743066534,1
C:\Users\Home\Downloads\psychtool\AnimalDB\AnimalDB\NonAnimall\FarBody\Fda_A463059.jpg,NonAnimall,FarBody,5,38,NonAnimall,4,0.953347987495363,1.07201772066765,1
C:\Users\Home\Downloads\psychtool\AnimalDB\AnimalDB\NonAnimall\MediumBody\Mda_art22.jpg,NonAnimall,MediumBody,5,39,NonAnimall,5,0.830124776344746,0.948380880290642,1
C:\Users\Home\Downloads\psychtool\AnimalDB\AnimalDB\Animall\Head\H_N209038.jpg,Animall,Head,5,40,NonAnimall,3,1.80330800730735,1.92482731863856,0
C:\Users\Home\Downloads\psychtool\AnimalDB\AnimalDB\Animall\FarBody\F_N42093.jpg,Animall,FarBody,5,41,NonAnimall,3,1.11300968844444,1.23127566906624,0
C:\Users\Home\Downloads\psychtool\AnimalDB\AnimalDB\Animall\MediumBody\M_N253087.jpg,Animall,MediumBody,5,42,Animall,4,0.947369523113593,1.06579431844875,1
C:\Users\Home\Downloads\psychtool\AnimalDB\AnimalDB\NonAnimall\MediumBody\Mda_archi37.jpg,NonAnimall,MediumBody,5,43,NonAnimall,3,1.18611027277075,1.30810563312843,1
C:\Users\Home\Downloads\psychtool\AnimalDB\AnimalDB\Animall\FarBody\F_N16064.jpg,Animall,FarBody,5,44,NonAnimall,3,1.26999366329983,1.39142250572331,0
C:\Users\Home\Downloads\psychtool\AnimalDB\AnimalDB\Animall\Head\H_N209036.jpg,Animall,Head,5,45,Animall,4,0.880175502039492,0.998460840899497,1
C:\Users\Home\Downloads\psychtool\AnimalDB\AnimalDB\Animall\FarBody\F_N77005.jpg,Animall,FarBody,5,46,Animall,2,1.40350269363262,1.52448274614289,1
C:\Users\Home\Downloads\psychtool\AnimalDB\AnimalDB\Animall\Head\H_N247049.jpg,Animall,Head,5,47,Animall,2,1.87831515795551,1.99653570633382,1
C:\Users\Home\Downloads\psychtool\AnimalDB\AnimalDB\NonAnimall\MediumBody\Mda_art376.jpg,NonAnimall,MediumBody,5,48,NonAnimall,4,0.976833203341812,1.10002678516321,1
C:\Users\Home\Downloads\psychtool\AnimalDB\AnimalDB\Animall\CloseBody\B_N123069.jpg,Animall,CloseBody,5,49,Animall,1,1.78652461315505,1.90555898821913,1
C:\Users\Home\Downloads\psychtool\AnimalDB\AnimalDB\NonAnimall\MediumBody\Mda_urb384.jpg,NonAnimall,MediumBody,5,50,Animall,1,1.36315388581716,1.48143211333081,0
C:\Users\Home\Downloads\psychtool\AnimalDB\AnimalDB\NonAnimall\FarBody\Fda_A487089.jpg,NonAnimall,FarBody,5,51,NonAnimall,5,0.970659578684717,1.09312822273932,1
C:\Users\Home\Downloads\psychtool\AnimalDB\AnimalDB\NonAnimall\CloseBody\Bda_art1185.jpg,NonAnimall,CloseBody,5,52,NonAnimall,4,0.795931025408208,0.914496462559327,1
C:\Users\Home\Downloads\psychtool\AnimalDB\AnimalDB\Animall\MediumBody\M_N109070.jpg,Animall,MediumBody,5,53,Animall,4,0.943949476350099,1.06222019786946,1
C:\Users\Home\Downloads\psychtool\AnimalDB\AnimalDB\Animall\CloseBody\B_N77079.jpg,Animall,CloseBody,5,54,Animall,5,0.733317346544936,0.851879228139296,1
C:\Users\Home\Downloads\psychtool\AnimalDB\AnimalDB\Animall\MediumBody\M_N123057.jpg,Animall,MediumBody,5,55,Animall,4,1.08620042563416,1.20525534381159,1
C:\Users\Home\Downloads\psychtool\AnimalDB\AnimalDB\NonAnimall\Head\Hda_obj176.jpg,NonAnimall,Head,5,56,Animall,2,1.7815160243772,1.8998238814529,0
C:\Users\Home\Downloads\psychtool\AnimalDB\AnimalDB\NonAnimall\Head\Hda_obj396.jpg,NonAnimall,Head,5,57,NonAnimall,2,1.52011060132645,1.63971188967116,1
C:\Users\Home\Downloads\psychtool\AnimalDB\AnimalDB\NonAnimall\FarBody\Fda_A462040.jpg,NonAnimall,FarBody,5,58,NonAnimall,3,0.993717338424176,1.1115752204787,1
C:\Users\Home\Downloads\psychtool\AnimalDB\AnimalDB\NonAnimall\Head\Hda_obj394.jpg,NonAnimall,Head,5,59,NonAnimall,2,1.8364666972775,1.95660763932392,1
C:\Users\Home\Downloads\psychtool\AnimalDB\AnimalDB\Animall\FarBody\F_N77002.jpg,Animall,FarBody,5,60,NonAnimall,1,2.58636595658027,2.71009089588188,0
C:\Users\Home\Downloads\psychtool\AnimalDB\AnimalDB\Animall\MediumBody\M_N253095.jpg,Animall,MediumBody,5,61,Animall,2,1.75332641717978,1.87317343358882,1
C:\Users\Home\Downloads\psychtool\AnimalDB\AnimalDB\Animall\FarBody\F_N77073.jpg,Animall,FarBody,5,62,NonAnimall,3,2.2863302428741,2.40902644209564,0
C:\Users\Home\Downloads\psychtool\AnimalDB\AnimalDB\NonAnimall\MediumBody\Mda_art573.jpg,NonAnimall,MediumBody,5,63,NonAnimall,5,0.852212264901027,0.970130986534059,1
C:\Users\Home\Downloads\psychtool\AnimalDB\AnimalDB\NonAnimall\CloseBody\Bda_art1263.jpg,NonAnimall,CloseBody,5,64,NonAnimall,3,1.47748940065503,1.59569454169832,1
C:\Users\Home\Downloads\psychtool\AnimalDB\AnimalDB\Animall\Head\H_N816021.jpg,Animall,Head,5,65,Animall,4,2.18625368014909,2.30925921234302,1
C:\Users\Home\Downloads\psychtool\AnimalDB\AnimalDB\Animall\MediumBody\M_N160002.jpg,Animall,MediumBody,5,66,Animall,3,1.13408147427253,1.25244029448368,1
C:\Users\Home\Downloads\psychtool\AnimalDB\AnimalDB\NonAnimall\FarBody\Fda_art1317.jpg,NonAnimall,FarBody,5,67,NonAnimall,4,1.14908195636235,0.950891100568697,1
C:\Users\Home\Downloads\psychtool\AnimalDB\AnimalDB\NonAnimall\FarBody\Fda_art560.jpg,NonAnimall,FarBody,5,68,NonAnimall,5,0.786605995846912,0.907115530222654,1
C:\Users\Home\Downloads\psychtool\AnimalDB\AnimalDB\NonAnimall\FarBody\Fda_art36.jpg,NonAnimall,FarBody,5,69,NonAnimall,4,1.18659856868908,1.30463620368391,1
C:\Users\Home\Downloads\psychtool\AnimalDB\AnimalDB\NonAnimall\Head\Hda_obj88.jpg,NonAnimall,Head,5,70,NonAnimall,3,1.54361833585426,1.66156905749813,1
C:\Users\Home\Downloads\psychtool\AnimalDB\AnimalDB\NonAnimall\Head\Hda_obj296.jpg,NonAnimall,Head,5,71,NonAnimall,2,1.79491492756642,1.91306199459359,1
C:\Users\Home\Downloads\psychtool\AnimalDB\AnimalDB\NonAnimall\FarBody\Fda_art1469.jpg,NonAnimall,FarBody,5,72,NonAnimall,3,1.23644860321656,1.35765897668898,1
C:\Users\Home\Downloads\psychtool\AnimalDB\AnimalDB\NonAnimall\MediumBody\Mda_archi422.jpg,NonAnimall,MediumBody,5,73,NonAnimall,4,1.06049733492546,1.1780012419913,1
C:\Users\Home\Downloads\psychtool\AnimalDB\AnimalDB\Animall\CloseBody\B_N77089.jpg,Animall,CloseBody,5,74,Animall,5,0.702884580474347,0.820517672691494,1
C:\Users\Home\Downloads\psychtool\AnimalDB\AnimalDB\Animall\CloseBody\B_ani39.jpg,Animall,CloseBody,5,75,Animall,5,0.753224491374567,0.876036048401147,1
C:\Users\Home\Downloads\psychtool\AnimalDB\AnimalDB\Animall\MediumBody\M_N112005.jpg,Animall,MediumBody,5,76,Animall,5,0.764724729117006,0.883271993370727,1
C:\Users\Home\Downloads\psychtool\AnimalDB\AnimalDB\NonAnimall\MediumBody\Mda_hexp26.jpg,NonAnimall,MediumBody,5,77,NonAnimall,5,0.703442011959851,0.822771498002112,1
C:\Users\Home\Downloads\psychtool\AnimalDB\AnimalDB\Animall\Head\H_N253037.jpg,Animall,Head,5,78,Animall,5,0.746816595084965,0.866618179483339,1
C:\Users\Home\Downloads\psychtool\AnimalDB\AnimalDB\Animall\Head\H_N134043.jpg,Animall,Head,5,79,Animall,5,0.719320715637878,0.845067184185609,1
C:\Users\Home\Downloads\psychtool\AnimalDB\AnimalDB\Animall\CloseBody\B_N106019.jpg,Animall,CloseBody,5,80,Animall,5,0.630083057563752,0.749037235276774,1
C:\Users\Home\Downloads\psychtool\AnimalDB\AnimalDB\Animall\Head\H_N134022.jpg,Animall,Head,5,81,Animall,5,0.633327696938068,0.752516541164368,1
C:\Users\Home\Downloads\psychtool\AnimalDB\AnimalDB\Animall\MediumBody\M_N109046.jpg,Animall,MediumBody,5,82,Animall,2,1.53368886234239,1.65323089133017,1
C:\Users\Home\Downloads\psychtool\AnimalDB\AnimalDB\Animall\MediumBody\M_N326099.jpg,Animall,MediumBody,5,83,NonAnimall,3,1.93127472116612,2.04936608439311,0
C:\Users\Home\Downloads\psychtool\AnimalDB\AnimalDB\Animall\Head\H_N676064.jpg,Animall,Head,5,84,Animall,4,0.803506723372266,0.925661688437685,1
C:\Users\Home\Downloads\psychtool\AnimalDB\AnimalDB\NonAnimall\FarBody\Fda_A683031.jpg,NonAnimall,FarBody,5,85,NonAnimall,5,0.777382891857997,0.895669415825978,1
C:\Users\Home\Downloads\psychtool\AnimalDB\AnimalDB\NonAnimall\MediumBody\Mdn_text119.jpg,NonAnimall,MediumBody,5,86,Animall,4,0.820209129713476,0.941828391747549,0
C:\Users\Home\Downloads\psychtool\AnimalDB\AnimalDB\Animall\Head\H_N816077.jpg,Animall,Head,5,87,Animall,3,1.66499582026154,1.78287938144058,1
C:\Users\Home\Downloads\psychtool\AnimalDB\AnimalDB\NonAnimall\FarBody\Fda_art1420.jpg,NonAnimall,FarBody,5,88,Animall,3,1.8656494889874,1.98413591389544,0
C:\Users\Home\Downloads\psychtool\AnimalDB\AnimalDB\NonAnimall\MediumBody\Mda_archi327.jpg,NonAnimall,MediumBody,5,89,Animall,2,1.58182551572099,1.70047944667749,0
C:\Users\Home\Downloads\psychtool\AnimalDB\AnimalDB\Animall\CloseBody\B_N49021.jpg,Animall,CloseBody,5,90,Animall,3,1.39854743820615,1.51733687520027,1
C:\Users\Home\Downloads\psychtool\AnimalDB\AnimalDB\Animall\CloseBody\B_N160037.jpg,Animall,CloseBody,5,91,Animall,3,1.35015597008169,1.46935469075106,1
C:\Users\Home\Downloads\psychtool\AnimalDB\AnimalDB\Animall\MediumBody\M_N130010.jpg,Animall,MediumBody,5,92,Animall,2,2.11416366277263,2.23238460673019,1
C:\Users\Home\Downloads\psychtool\AnimalDB\AnimalDB\Animall\MediumBody\M_N109000.jpg,Animall,MediumBody,5,93,Animall,2,2.3861681886483,2.50593816814944,1
C:\Users\Home\Downloads\psychtool\AnimalDB\AnimalDB\Animall\CloseBody\B_N108006.jpg,Animall,CloseBody,5,94,Animall,4,0.881087303860113,0.999329975806177,1
C:\Users\Home\Downloads\psychtool\AnimalDB\AnimalDB\NonAnimall\Head\Hda_int453.jpg,NonAnimall,Head,5,95,NonAnimall,2,1.97873858455569,2.09727597236633,1
C:\Users\Home\Downloads\psychtool\AnimalDB\AnimalDB\Animall\CloseBody\B_N107010.jpg,Animall,CloseBody,5,96,Animall,4,0.719289900735021,0.837643190054223,1
C:\Users\Home\Downloads\psychtool\AnimalDB\AnimalDB\NonAnimall\FarBody\Fda_enc51.jpg,NonAnimall,FarBody,5,97,NonAnimall,4,1.19446266116574,1.3134124930948,1
C:\Users\Home\Downloads\psychtool\AnimalDB\AnimalDB\NonAnimall\CloseBody\Bda_room133.jpg,NonAnimall,CloseBody,5,98,NonAnimall,3,1.37054588017054,1.49356800504029,1
C:\Users\Home\Downloads\psychtool\AnimalDB\AnimalDB\Animall\MediumBody\M_N136020.jpg,Animall,MediumBody,5,99,NonAnimall,3,1.61527339043096,1.73358045727946,0
C:\Users\Home\Downloads\psychtool\AnimalDB\AnimalDB\Animall\CloseBody\B_N107080.jpg,Animall,CloseBody,5,100,Animall,2,1.65449271746911,1.77956323581748,1
C:\Users\Home\Downloads\psychtool\AnimalDB\AnimalDB\NonAnimall\FarBody\Fda_art32.jpg,NonAnimall,FarBody,5,101,Animall,2,1.28676323033869,1.41005320684053,0
C:\Users\Home\Downloads\psychtool\AnimalDB\AnimalDB\NonAnimall\FarBody\Fda_gre536.jpg,NonAnimall,FarBody,5,102,NonAnimall,4,0.917439670301974,1.03670239076018,1
C:\Users\Home\Downloads\psychtool\AnimalDB\AnimalDB\NonAnimall\Head\Hda_obj59.jpg,NonAnimall,Head,5,103,Animall,5,0.653354545589536,0.775607090909034,0
C:\Users\Home\Downloads\psychtool\AnimalDB\AnimalDB\Animall\FarBody\F_land891.jpg,Animall,FarBody,5,104,Animall,4,0.936904741218314,1.06008331058547,1
C:\Users\Home\Downloads\psychtool\AnimalDB\AnimalDB\Animall\MediumBody\M_N314023.jpg,Animall,MediumBody,5,105,Animall,2,1.70333020971157,1.8247701136861,1
C:\Users\Home\Downloads\psychtool\AnimalDB\AnimalDB\Animall\CloseBody\B_N49022.jpg,Animall,CloseBody,5,106,Animall,2,1.56913574784994,1.68730098777451,1
C:\Users\Home\Downloads\psychtool\AnimalDB\AnimalDB\NonAnimall\CloseBody\Bda_room170.jpg,NonAnimall,CloseBody,5,107,NonAnimall,4,0.764430013252422,0.882168191950768,1
C:\Users\Home\Downloads\psychtool\AnimalDB\AnimalDB\NonAnimall\FarBody\Fda_A805085.jpg,NonAnimall,FarBody,5,108,NonAnimall,5,0.753689083503559,0.871465583099052,1
C:\Users\Home\Downloads\psychtool\AnimalDB\AnimalDB\Animall\MediumBody\M_N110035.jpg,Animall,MediumBody,5,109,Animall,3,1.56508913380094,1.68372173141688,1
C:\Users\Home\Downloads\psychtool\AnimalDB\AnimalDB\NonAnimall\Head\Hda_obj89.jpg,NonAnimall,Head,5,110,NonAnimall,3,1.82822611113079,1.94573080842383,1
C:\Users\Home\Downloads\psychtool\AnimalDB\AnimalDB\NonAnimall\CloseBody\Bda_room4.jpg,NonAnimall,CloseBody,5,111,NonAnimall,2,0.953465320635587,1.07415184262209,1
C:\Users\Home\Downloads\psychtool\AnimalDB\AnimalDB\Animall\Head\H_N816047.jpg,Animall,Head,5,112,NonAnimall,3,2.18519610050134,2.30276519292966,0
C:\Users\Home\Downloads\psychtool\AnimalDB\AnimalDB\NonAnimall\Head\Hda_obj418.jpg,NonAnimall,Head,5,113,NonAnimall,3,1.80291057541035,1.92647274956107,1
C:\Users\Home\Downloads\psychtool\AnimalDB\AnimalDB\Animall\CloseBody\B_N134010.jpg,Animall,CloseBody,5,114,Animall,4,0.919878779212013,1.04100421466865,1
C:\Users\Home\Downloads\psychtool\AnimalDB\AnimalDB\Animall\Head\H_N168068.jpg,Animall,Head,5,115,Animall,5,0.69379066163674,0.811575457686558,1
C:\Users\Home\Downloads\psychtool\AnimalDB\AnimalDB\Animall\MediumBody\M_N289015.jpg,Animall,MediumBody,5,116,Animall,5,0.663330636452883,0.7811742965132,1
C:\Users\Home\Downloads\psychtool\AnimalDB\AnimalDB\NonAnimall\FarBody\Fda_art1180.jpg,NonAnimall,FarBody,5,117,NonAnimall,5,1.22027715924196,1.34185889060609,1
C:\Users\Home\Downloads\psychtool\AnimalDB\AnimalDB\NonAnimall\MediumBody\Mda_art7.jpg,NonAnimall,MediumBody,5,118,NonAnimall,4,1.02005963842385,1.14413183671422,1
C:\Users\Home\Downloads\psychtool\AnimalDB\AnimalDB\Animall\FarBody\F_N130083.jpg,Animall,FarBody,5,119,Animall,4,0.780089062638581,0.898400080390275,1
C:\Users\Home\Downloads\psychtool\AnimalDB\AnimalDB\Animall\FarBody\F_N130006.jpg,Animall,FarBody,5,120,Animall,3,1.18672696361318,1.30593516584486,1
