file,category,distance,block,trial,response,confidence,responseTime,reactionTime,correct
C:\Users\Home\Downloads\psychtool\AnimalDB\AnimalDB\NonAnimall\MediumBody\Mdn_N291070.jpg,NonAnimall,MediumBody,1,1,NonAnimall,3,2.88949223561212,3.00752631481737,1
C:\Users\Home\Downloads\psychtool\AnimalDB\AnimalDB\NonAnimall\Head\Hdn_objn177.jpg,NonAnimall,Head,1,2,Animall,3,2.38002458866686,2.49951525963843,0
C:\Users\Home\Downloads\psychtool\AnimalDB\AnimalDB\NonAnimall\FarBody\Fdn_bea7.jpg,NonAnimall,FarBody,1,3,NonAnimall,4,1.55303897056729,1.67124964250252,1
C:\Users\Home\Downloads\psychtool\AnimalDB\AnimalDB\Animall\MediumBody\M_N253095.jpg,Animall,MediumBody,1,4,Animall,4,1.60350174526684,1.72439646464773,1
C:\Users\Home\Downloads\psychtool\AnimalDB\AnimalDB\NonAnimall\Head\Hdn_natu805.jpg,NonAnimall,Head,1,5,Animall,4,1.30994266876951,1.45447075203992,0
C:\Users\Home\Downloads\psychtool\AnimalDB\AnimalDB\NonAnimall\MediumBody\Mdn_N266002.jpg,NonAnimall,MediumBody,1,6,NonAnimall,3,1.65388827351853,1.77109430427663,1
C:\Users\Home\Downloads\psychtool\AnimalDB\AnimalDB\Animall\CloseBody\B_N347031.jpg,Animall,CloseBody,1,7,NonAnimall,3,1.73674055375159,1.85476357163861,0
C:\Users\Home\Downloads\psychtool\AnimalDB\AnimalDB\Animall\MediumBody\M_N289045.jpg,Animall,MediumBody,1,8,Animall,3,1.93223669542931,2.05103719420731,1
C:\Users\Home\Downloads\psychtool\AnimalDB\AnimalDB\NonAnimall\Head\Hdn_for104.jpg,NonAnimall,Head,1,9,NonAnimall,3,2.00117688789032,2.11658222903498,1
C:\Users\Home\Downloads\psychtool\AnimalDB\AnimalDB\NonAnimall\CloseBody\Bdn_objn146.jpg,NonAnimall,CloseBody,1,10,Animall,2,2.62785451626405,2.74470420181751,0
C:\Users\Home\Downloads\psychtool\AnimalDB\AnimalDB\NonAnimall\MediumBody\Mdn_nat1196.jpg,NonAnimall,MediumBody,1,11,NonAnimall,2,2.35249907965772,2.47556940186769,1
C:\Users\Home\Downloads\psychtool\AnimalDB\AnimalDB\Animall\FarBody\F_N541000.jpg,Animall,FarBody,1,12,Animall,2,2.62002084357664,2.74295368464664,1
C:\Users\Home\Downloads\psychtool\AnimalDB\AnimalDB\NonAnimall\Head\Hdn_objn200.jpg,NonAnimall,Head,1,13,NonAnimall,4,2.16748549719341,2.28647957602516,1
C:\Users\Home\Downloads\psychtool\AnimalDB\AnimalDB\Animall\MediumBody\M_N109000.jpg,Animall,MediumBody,1,14,Animall,3,1.67012845817953,1.7934950767085,1
C:\Users\Home\Downloads\psychtool\AnimalDB\AnimalDB\Animall\CloseBody\B_N825028.jpg,Animall,CloseBody,1,15,Animall,2,2.14442536747083,2.26186408940703,1
C:\Users\Home\Downloads\psychtool\AnimalDB\AnimalDB\NonAnimall\CloseBody\Bdn_text3.jpg,NonAnimall,CloseBody,1,16,Animall,4,0.919533100677654,1.03756480989978,0
C:\Users\Home\Downloads\psychtool\AnimalDB\AnimalDB\Animall\FarBody\F_N289017.jpg,Animall,FarBody,1,17,Animall,4,1.04738248116337,1.16583888139576,1
C:\Users\Home\Downloads\psychtool\AnimalDB\AnimalDB\NonAnimall\FarBody\Fdn_open7.jpg,NonAnimall,FarBody,1,18,NonAnimall,2,2.48604247998446,2.60990608599968,1
C:\Users\Home\Downloads\psychtool\AnimalDB\AnimalDB\NonAnimall\MediumBody\Mdn_natu169.jpg,NonAnimall,MediumBody,1,19,Animall,2,2.18631609971635,2.30877960775979,0
C:\Users\Home\Downloads\psychtool\AnimalDB\AnimalDB\NonAnimall\FarBody\Fdn_nat155.jpg,NonAnimall,FarBody,1,20,NonAnimall,3,1.78665419318713,1.90681212302297,1
C:\Users\Home\Downloads\psychtool\AnimalDB\AnimalDB\NonAnimall\FarBody\Fdn_open20.jpg,NonAnimall,FarBody,1,21,NonAnimall,4,0.851131771923974,0.969642690615728,1
C:\Users\Home\Downloads\psychtool\AnimalDB\AnimalDB\NonAnimall\FarBody\Fdn_for7.jpg,NonAnimall,FarBody,1,22,Animall,2,1.61906716530211,1.7367749242112,0
C:\Users\Home\Downloads\psychtool\AnimalDB\AnimalDB\Animall\FarBody\F_N824093.jpg,Animall,FarBody,1,23,Animall,5,1.19842315185815,1.31670928071253,1
C:\Users\Home\Downloads\psychtool\AnimalDB\AnimalDB\Animall\CloseBody\B_N209052.jpg,Animall,CloseBody,1,24,Animall,3,1.68679688940756,1.80838612676598,1
C:\Users\Home\Downloads\psychtool\AnimalDB\AnimalDB\NonAnimall\MediumBody\Mdn_N347014.jpg,NonAnimall,MediumBody,1,25,Animall,3,1.93186099198647,2.04967620759271,0
C:\Users\Home\Downloads\psychtool\AnimalDB\AnimalDB\Animall\CloseBody\B_N209044.jpg,Animall,CloseBody,1,26,Animall,4,1.10308851115406,1.22588663641363,1
C:\Users\Home\Downloads\psychtool\AnimalDB\AnimalDB\NonAnimall\FarBody\Fdn_nat462.jpg,NonAnimall,FarBody,1,27,NonAnimall,2,2.31856172368862,2.43817565380596,1
C:\Users\Home\Downloads\psychtool\AnimalDB\AnimalDB\Animall\MediumBody\M_N168014.jpg,Animall,MediumBody,1,28,Animall,2,2.36230687424541,2.48017265764065,1
C:\Users\Home\Downloads\psychtool\AnimalDB\AnimalDB\NonAnimall\CloseBody\Bdn_N83045.jpg,NonAnimall,CloseBody,1,29,Animall,2,1.33671795623377,1.45864694635384,0
C:\Users\Home\Downloads\psychtool\AnimalDB\AnimalDB\Animall\Head\H_N134076.jpg,Animall,Head,1,30,Animall,5,1.05345971067436,1.17282751761377,1
C:\Users\Home\Downloads\psychtool\AnimalDB\AnimalDB\Animall\FarBody\F_N408052.jpg,Animall,FarBody,1,31,Animall,2,2.16738120117225,2.28650881070644,1
C:\Users\Home\Downloads\psychtool\AnimalDB\AnimalDB\Animall\Head\H_N415046.jpg,Animall,Head,1,32,Animall,2,1.56957031530328,1.69010078813881,1
C:\Users\Home\Downloads\psychtool\AnimalDB\AnimalDB\Animall\Head\H_N825030.jpg,Animall,Head,1,33,Animall,3,1.27834644680843,1.39716432825662,1
C:\Users\Home\Downloads\psychtool\AnimalDB\AnimalDB\Animall\FarBody\F_N676063.jpg,Animall,FarBody,1,34,Animall,4,1.5835894648917,1.70242630923167,1
C:\Users\Home\Downloads\psychtool\AnimalDB\AnimalDB\Animall\FarBody\F_N825005.jpg,Animall,FarBody,1,35,Animall,2,1.29395453305915,1.41203167452477,1
C:\Users\Home\Downloads\psychtool\AnimalDB\AnimalDB\NonAnimall\CloseBody\Bdn_text64.jpg,NonAnimall,CloseBody,1,36,NonAnimall,2,1.71989750512876,1.84044417529367,1
C:\Users\Home\Downloads\psychtool\AnimalDB\AnimalDB\NonAnimall\CloseBody\Bdn_for82.jpg,NonAnimall,CloseBody,1,37,NonAnimall,2,2.02010349021293,2.14250339358114,1
C:\Users\Home\Downloads\psychtool\AnimalDB\AnimalDB\Animall\MediumBody\M_N110047.jpg,Animall,MediumBody,1,38,Animall,3,1.33375776093453,1.45320497523062,1
C:\Users\Home\Downloads\psychtool\AnimalDB\AnimalDB\Animall\Head\H_N247023.jpg,Animall,Head,1,39,Animall,4,1.06665752758272,1.18592854426242,1
C:\Users\Home\Downloads\psychtool\AnimalDB\AnimalDB\NonAnimall\FarBody\Fdn_natu79.jpg,NonAnimall,FarBody,1,40,Animall,4,1.18605377874337,1.30469585815445,0
C:\Users\Home\Downloads\psychtool\AnimalDB\AnimalDB\Animall\CloseBody\B_N427054.jpg,Animall,CloseBody,1,41,NonAnimall,3,2.11058598663658,2.22829177044332,0
C:\Users\Home\Downloads\psychtool\AnimalDB\AnimalDB\Animall\FarBody\F_N314040.jpg,Animall,FarBody,1,42,Animall,3,1.86999358423054,1.99003260047175,1
C:\Users\Home\Downloads\psychtool\AnimalDB\AnimalDB\NonAnimall\Head\Hdn_objn65.jpg,NonAnimall,Head,1,43,Animall,3,1.69804626330733,1.81631382415071,0
C:\Users\Home\Downloads\psychtool\AnimalDB\AnimalDB\NonAnimall\MediumBody\Mdn_N344026.jpg,NonAnimall,MediumBody,1,44,Animall,3,1.11981146084145,1.23965136613697,0
C:\Users\Home\Downloads\psychtool\AnimalDB\AnimalDB\NonAnimall\Head\Hdn_N152028.jpg,NonAnimall,Head,1,45,NonAnimall,2,1.67771798325703,1.79610011167824,1
C:\Users\Home\Downloads\psychtool\AnimalDB\AnimalDB\NonAnimall\FarBody\Fdn_sclos4.jpg,NonAnimall,FarBody,1,46,NonAnimall,2,1.96987261646427,2.09361651865765,1
C:\Users\Home\Downloads\psychtool\AnimalDB\AnimalDB\NonAnimall\MediumBody\Mdn_N344039.jpg,NonAnimall,MediumBody,1,47,Animall,3,1.68297783075832,1.80275887181051,0
C:\Users\Home\Downloads\psychtool\AnimalDB\AnimalDB\NonAnimall\CloseBody\Bdn_text2.jpg,NonAnimall,CloseBody,1,48,NonAnimall,3,1.75386686110869,1.87823535548523,1
C:\Users\Home\Downloads\psychtool\AnimalDB\AnimalDB\Animall\CloseBody\B_N707011.jpg,Animall,CloseBody,1,49,Animall,2,1.52848432329483,1.64686803217046,1
C:\Users\Home\Downloads\psychtool\AnimalDB\AnimalDB\NonAnimall\Head\Hdn_objn56.jpg,NonAnimall,Head,1,50,Animall,3,1.45284388912842,1.57122799311765,0
C:\Users\Home\Downloads\psychtool\AnimalDB\AnimalDB\Animall\Head\H_N707064.jpg,Animall,Head,1,51,Animall,4,1.13815692788921,0.97573809325695,1
C:\Users\Home\Downloads\psychtool\AnimalDB\AnimalDB\NonAnimall\FarBody\Fdn_land83.jpg,NonAnimall,FarBody,1,52,NonAnimall,3,1.69782265857793,1.81648172531277,1
C:\Users\Home\Downloads\psychtool\AnimalDB\AnimalDB\NonAnimall\CloseBody\Bdn_land861.jpg,NonAnimall,CloseBody,1,53,Animall,1,1.90283108921722,2.02343109250069,0
C:\Users\Home\Downloads\psychtool\AnimalDB\AnimalDB\NonAnimall\Head\Hdn_objn38.jpg,NonAnimall,Head,1,54,Animall,1,3.00286063970998,3.12472721002996,0
C:\Users\Home\Downloads\psychtool\AnimalDB\AnimalDB\Animall\MediumBody\M_N112018.jpg,Animall,MediumBody,1,55,Animall,4,1.26846714597195,1.39284235611558,1
C:\Users\Home\Downloads\psychtool\AnimalDB\AnimalDB\NonAnimall\CloseBody\Bdn_natu419.jpg,NonAnimall,CloseBody,1,56,Animall,2,1.94371915562078,2.06185871665366,0
C:\Users\Home\Downloads\psychtool\AnimalDB\AnimalDB\Animall\MediumBody\M_N109073.jpg,Animall,MediumBody,1,57,NonAnimall,3,1.54770327103324,1.66572826425545,0
C:\Users\Home\Downloads\psychtool\AnimalDB\AnimalDB\NonAnimall\MediumBody\Mdn_N328009.jpg,NonAnimall,MediumBody,1,58,NonAnimall,3,1.45245040790178,1.56988557428122,1
C:\Users\Home\Downloads\psychtool\AnimalDB\AnimalDB\Animall\MediumBody\M_N289096.jpg,Animall,MediumBody,1,59,Animall,5,0.953244481468573,1.07474561990239,1
C:\Users\Home\Downloads\psychtool\AnimalDB\AnimalDB\Animall\CloseBody\B_N771064.jpg,Animall,CloseBody,1,60,Animall,5,0.737109146080911,0.859241197584197,1
C:\Users\Home\Downloads\psychtool\AnimalDB\AnimalDB\Animall\MediumBody\M_N289028.jpg,Animall,MediumBody,1,61,Animall,5,0.653034940827638,0.774603634839877,1
C:\Users\Home\Downloads\psychtool\AnimalDB\AnimalDB\Animall\FarBody\F_N802091.jpg,Animall,FarBody,1,62,Animall,5,0.685307902982458,0.804266426479444,1
C:\Users\Home\Downloads\psychtool\AnimalDB\AnimalDB\Animall\FarBody\F_N828004.jpg,Animall,FarBody,1,63,Animall,4,0.98670223262161,1.1092735924758,1
C:\Users\Home\Downloads\psychtool\AnimalDB\AnimalDB\NonAnimall\CloseBody\Bdn_nat1164.jpg,NonAnimall,CloseBody,1,64,NonAnimall,2,1.84755765134469,1.96569484192878,1
C:\Users\Home\Downloads\psychtool\AnimalDB\AnimalDB\Animall\MediumBody\M_N802029.jpg,Animall,MediumBody,1,65,Animall,1,2.08457198250107,2.20251914858818,1
C:\Users\Home\Downloads\psychtool\AnimalDB\AnimalDB\NonAnimall\Head\Hdn_objn46.jpg,NonAnimall,Head,1,66,Animall,5,1.06808567466214,1.18601624807343,0
C:\Users\Home\Downloads\psychtool\AnimalDB\AnimalDB\NonAnimall\MediumBody\Mdn_for135.jpg,NonAnimall,MediumBody,1,67,Animall,5,1.04523137165233,0.863292947411537,0
C:\Users\Home\Downloads\psychtool\AnimalDB\AnimalDB\Animall\CloseBody\B_N326017.jpg,Animall,CloseBody,1,68,Animall,5,0.683160349261016,0.802247267216444,1
C:\Users\Home\Downloads\psychtool\AnimalDB\AnimalDB\Animall\CloseBody\B_N825047.jpg,Animall,CloseBody,1,69,Animall,5,0.720197357004508,0.840480125974864,1
C:\Users\Home\Downloads\psychtool\AnimalDB\AnimalDB\NonAnimall\CloseBody\Bdn_text18.jpg,NonAnimall,CloseBody,1,70,NonAnimall,3,1.04590534651652,1.1641638209112,1
C:\Users\Home\Downloads\psychtool\AnimalDB\AnimalDB\Animall\FarBody\F_N485007.jpg,Animall,FarBody,1,71,Animall,2,1.49442054750398,1.61290499707684,1
C:\Users\Home\Downloads\psychtool\AnimalDB\AnimalDB\NonAnimall\FarBody\Fda_urb794.jpg,NonAnimall,FarBody,1,72,NonAnimall,5,1.53590634185821,1.65448481612839,1
C:\Users\Home\Downloads\psychtool\AnimalDB\AnimalDB\NonAnimall\CloseBody\Bdn_natu350.jpg,NonAnimall,CloseBody,1,73,Animall,1,1.25366261438467,1.37443565484136,0
C:\Users\Home\Downloads\psychtool\AnimalDB\AnimalDB\NonAnimall\CloseBody\Bdn_nat216.jpg,NonAnimall,CloseBody,1,74,NonAnimall,2,2.45270522264764,2.57581149577163,1
C:\Users\Home\Downloads\psychtool\AnimalDB\AnimalDB\NonAnimall\CloseBody\Bdn_text17.jpg,NonAnimall,CloseBody,1,75,Animall,2,1.86982449796051,1.98945857631043,0
C:\Users\Home\Downloads\psychtool\AnimalDB\AnimalDB\Animall\Head\H_N247096.jpg,Animall,Head,1,76,Animall,4,1.46459341072477,1.59294056845829,1
C:\Users\Home\Downloads\psychtool\AnimalDB\AnimalDB\NonAnimall\MediumBody\Mdn_natu462.jpg,NonAnimall,MediumBody,1,77,NonAnimall,1,2.31659352756105,2.43538928544149,1
C:\Users\Home\Downloads\psychtool\AnimalDB\AnimalDB\Animall\Head\H_N247010.jpg,Animall,Head,1,78,Animall,5,1.01456354395486,1.13351021544077,1
C:\Users\Home\Downloads\psychtool\AnimalDB\AnimalDB\Animall\FarBody\F_N828029.jpg,Animall,FarBody,1,79,Animall,3,2.16900964430533,2.28786979732104,1
C:\Users\Home\Downloads\psychtool\AnimalDB\AnimalDB\NonAnimall\CloseBody\Bdn_text7.jpg,NonAnimall,CloseBody,1,80,NonAnimall,4,1.10300673358142,1.22220426890999,1
C:\Users\Home\Downloads\psychtool\AnimalDB\AnimalDB\Animall\CloseBody\B_N826057.jpg,Animall,CloseBody,1,81,Animall,2,1.41155009460635,1.52987612457946,1
C:\Users\Home\Downloads\psychtool\AnimalDB\AnimalDB\NonAnimall\Head\Hdn_N115056.jpg,NonAnimall,Head,1,82,NonAnimall,5,0.765557518461719,0.885448386892676,1
C:\Users\Home\Downloads\psychtool\AnimalDB\AnimalDB\NonAnimall\FarBody\Fdn_land13.jpg,NonAnimall,FarBody,1,83,NonAnimall,4,0.997787656029686,1.11592405638658,1
C:\Users\Home\Downloads\psychtool\AnimalDB\AnimalDB\NonAnimall\Head\Hdn_N115084.jpg,NonAnimall,Head,1,84,NonAnimall,5,0.953699196921661,1.07785633346066,1
C:\Users\Home\Downloads\psychtool\AnimalDB\AnimalDB\Animall\Head\H_N168068.jpg,Animall,Head,1,85,Animall,5,0.93654721067287,1.05593240028247,1
C:\Users\Home\Downloads\psychtool\AnimalDB\AnimalDB\NonAnimall\Head\Hdn_objn31.jpg,NonAnimall,Head,1,86,NonAnimall,4,1.41166545264423,1.52962644584477,1
C:\Users\Home\Downloads\psychtool\AnimalDB\AnimalDB\NonAnimall\FarBody\Fdn_land867.jpg,NonAnimall,FarBody,1,87,NonAnimall,5,0.811222272459418,0.930206869961694,1
C:\Users\Home\Downloads\psychtool\AnimalDB\AnimalDB\Animall\Head\H_N707021.jpg,Animall,Head,1,88,Animall,5,1.05329062463716,0.891502307960764,1
C:\Users\Home\Downloads\psychtool\AnimalDB\AnimalDB\Animall\CloseBody\B_N289087.jpg,Animall,CloseBody,1,89,Animall,5,0.653003731044009,0.771292230114341,1
C:\Users\Home\Downloads\psychtool\AnimalDB\AnimalDB\Animall\MediumBody\M_N109070.jpg,Animall,MediumBody,1,90,Animall,5,0.628024787874892,0.746645928593352,1
C:\Users\Home\Downloads\psychtool\AnimalDB\AnimalDB\Animall\Head\H_N247008.jpg,Animall,Head,1,91,Animall,5,0.693045575870201,0.81171649438329,1
C:\Users\Home\Downloads\psychtool\AnimalDB\AnimalDB\Animall\MediumBody\M_N314099.jpg,Animall,MediumBody,1,92,Animall,5,0.649907634593546,0.770011835964397,1
C:\Users\Home\Downloads\psychtool\AnimalDB\AnimalDB\Animall\MediumBody\M_N173035.jpg,Animall,MediumBody,1,93,Animall,5,0.697463547810912,0.816193725448102,1
C:\Users\Home\Downloads\psychtool\AnimalDB\AnimalDB\NonAnimall\MediumBody\Mdn_text113.jpg,NonAnimall,MediumBody,1,94,Animall,5,1.03274624585174,1.1515589915216,0
C:\Users\Home\Downloads\psychtool\AnimalDB\AnimalDB\Animall\MediumBody\M_N130081.jpg,Animall,MediumBody,1,95,Animall,2,2.86952069588006,2.99024830409326,1
C:\Users\Home\Downloads\psychtool\AnimalDB\AnimalDB\Animall\FarBody\F_N289063.jpg,Animall,FarBody,1,96,Animall,3,2.01515258057043,2.13382902997546,1
C:\Users\Home\Downloads\psychtool\AnimalDB\AnimalDB\NonAnimall\Head\Hdn_natu729.jpg,NonAnimall,Head,1,97,NonAnimall,3,1.37044948502444,1.49174558673985,1
C:\Users\Home\Downloads\psychtool\AnimalDB\AnimalDB\NonAnimall\MediumBody\Mdn_land503.jpg,NonAnimall,MediumBody,1,98,NonAnimall,2,2.9126294022426,3.03171750577167,1
C:\Users\Home\Downloads\psychtool\AnimalDB\AnimalDB\Animall\MediumBody\M_N314057.jpg,Animall,MediumBody,1,99,Animall,1,1.87812157790177,1.99599368218333,1
C:\Users\Home\Downloads\psychtool\AnimalDB\AnimalDB\NonAnimall\Head\Hdn_objn39.jpg,NonAnimall,Head,1,100,Animall,2,1.65195879340172,1.7695140587166,0
C:\Users\Home\Downloads\psychtool\AnimalDB\AnimalDB\NonAnimall\CloseBody\Bdn_text106.jpg,NonAnimall,CloseBody,1,101,NonAnimall,3,1.28668658831157,1.40866733156145,1
C:\Users\Home\Downloads\psychtool\AnimalDB\AnimalDB\Animall\Head\H_N130063.jpg,Animall,Head,1,102,Animall,5,0.797417246503755,0.914995820261538,1
C:\Users\Home\Downloads\psychtool\AnimalDB\AnimalDB\Animall\FarBody\F_N828048.jpg,Animall,FarBody,1,103,NonAnimall,5,1.36469423025846,1.48289818642661,0
C:\Users\Home\Downloads\psychtool\AnimalDB\AnimalDB\NonAnimall\Head\Hdn_objn35.jpg,NonAnimall,Head,1,104,Animall,1,1.89942328934558,2.01781687489711,0
C:\Users\Home\Downloads\psychtool\AnimalDB\AnimalDB\NonAnimall\Head\Hdn_objn60.jpg,NonAnimall,Head,1,105,Animall,2,1.48218273022212,1.59994935314171,0
C:\Users\Home\Downloads\psychtool\AnimalDB\AnimalDB\NonAnimall\CloseBody\Bdn_natu160.jpg,NonAnimall,CloseBody,1,106,NonAnimall,4,1.03650130447932,1.15781873953529,1
C:\Users\Home\Downloads\psychtool\AnimalDB\AnimalDB\Animall\MediumBody\M_N136054.jpg,Animall,MediumBody,1,107,Animall,5,0.746853335760534,0.864644057350233,1
C:\Users\Home\Downloads\psychtool\AnimalDB\AnimalDB\NonAnimall\Head\Hdn_N127068.jpg,NonAnimall,Head,1,108,NonAnimall,4,1.15327908867039,1.27445864747278,1
C:\Users\Home\Downloads\psychtool\AnimalDB\AnimalDB\Animall\Head\H_N160053.jpg,Animall,Head,1,109,Animall,2,1.79597922298126,1.91403384576552,1
C:\Users\Home\Downloads\psychtool\AnimalDB\AnimalDB\Animall\Head\H_N123040.jpg,Animall,Head,1,110,Animall,1,1.88047732901759,1.99840750754811,1
C:\Users\Home\Downloads\psychtool\AnimalDB\AnimalDB\Animall\MediumBody\M_N268028.jpg,Animall,MediumBody,1,111,Animall,2,2.07841929607093,2.19725021440536,1
C:\Users\Home\Downloads\psychtool\AnimalDB\AnimalDB\Animall\CloseBody\B_N826037.jpg,Animall,CloseBody,1,112,Animall,2,1.88155110599473,2.00024572806433,1
C:\Users\Home\Downloads\psychtool\AnimalDB\AnimalDB\NonAnimall\CloseBody\Bdn_land376.jpg,NonAnimall,CloseBody,1,113,Animall,3,1.59323054365814,1.71114926529117,0
C:\Users\Home\Downloads\psychtool\AnimalDB\AnimalDB\Animall\FarBody\F_N816057.jpg,Animall,FarBody,1,114,NonAnimall,5,0.803268501069397,0.922791172051802,0
C:\Users\Home\Downloads\psychtool\AnimalDB\AnimalDB\NonAnimall\MediumBody\Mdn_land743.jpg,NonAnimall,MediumBody,1,115,NonAnimall,5,0.797651517903432,0.915826239390299,1
C:\Users\Home\Downloads\psychtool\AnimalDB\AnimalDB\NonAnimall\Head\Hdn_objn190.jpg,NonAnimall,Head,1,116,NonAnimall,5,0.685301186982542,0.803212007274851,1
C:\Users\Home\Downloads\psychtool\AnimalDB\AnimalDB\Animall\Head\H_N676064.jpg,Animall,Head,1,117,Animall,2,1.25151466554962,1.37574567855336,1
C:\Users\Home\Downloads\psychtool\AnimalDB\AnimalDB\Animall\Head\H_N826076.jpg,Animall,Head,1,118,Animall,1,2.06923688366078,2.19332606950775,1
C:\Users\Home\Downloads\psychtool\AnimalDB\AnimalDB\NonAnimall\FarBody\Fdn_open67.jpg,NonAnimall,FarBody,1,119,NonAnimall,4,1.20255509926938,1.32093051192351,1
C:\Users\Home\Downloads\psychtool\AnimalDB\AnimalDB\NonAnimall\Head\Hdn_objn173.jpg,NonAnimall,Head,1,120,NonAnimall,4,0.981192706152797,1.09935636585578,1
C:\Users\Home\Downloads\psychtool\AnimalDB\AnimalDB\NonAnimall\Head\Hdn_objn202.jpg,NonAnimall,Head,2,1,NonAnimall,5,1.08673652401194,1.20743055222556,1
C:\Users\Home\Downloads\psychtool\AnimalDB\AnimalDB\NonAnimall\CloseBody\Bdn_text14.jpg,NonAnimall,CloseBody,2,2,NonAnimall,2,1.88009372446686,1.9980361496564,1
C:\Users\Home\Downloads\psychtool\AnimalDB\AnimalDB\Animall\Head\H_N209040.jpg,Animall,Head,2,3,Animall,1,1.7995237139985,1.91793468222022,1
C:\Users\Home\Downloads\psychtool\AnimalDB\AnimalDB\Animall\Head\H_N427097.jpg,Animall,Head,2,4,Animall,4,0.764525223057717,0.882853228366002,1
C:\Users\Home\Downloads\psychtool\AnimalDB\AnimalDB\NonAnimall\FarBody\Fdn_land253.jpg,NonAnimall,FarBody,2,5,NonAnimall,4,0.828597073676065,0.946061869617552,1
C:\Users\Home\Downloads\psychtool\AnimalDB\AnimalDB\Animall\CloseBody\B_N541022.jpg,Animall,CloseBody,2,6,Animall,3,1.91924510081299,2.04168332507834,1
C:\Users\Home\Downloads\psychtool\AnimalDB\AnimalDB\NonAnimall\MediumBody\Mdn_N347015.jpg,NonAnimall,MediumBody,2,7,NonAnimall,5,0.937094370834529,1.05862434883602,1
C:\Users\Home\Downloads\psychtool\AnimalDB\AnimalDB\NonAnimall\CloseBody\Bdn_natu393.jpg,NonAnimall,CloseBody,2,8,NonAnimall,5,0.802654575556517,0.920622680103406,1
C:\Users\Home\Downloads\psychtool\AnimalDB\AnimalDB\NonAnimall\FarBody\Fdn_bea5.jpg,NonAnimall,FarBody,2,9,NonAnimall,4,0.836726252455264,0.957843391457573,1
C:\Users\Home\Downloads\psychtool\AnimalDB\AnimalDB\NonAnimall\CloseBody\Bda_urb596.jpg,NonAnimall,CloseBody,2,10,Animall,2,1.76934931823052,1.89203603588976,0
C:\Users\Home\Downloads\psychtool\AnimalDB\AnimalDB\NonAnimall\Head\Hdn_objn213.jpg,NonAnimall,Head,2,11,NonAnimall,4,0.753115849336609,0.871463607763872,1
C:\Users\Home\Downloads\psychtool\AnimalDB\AnimalDB\Animall\FarBody\F_N314064.jpg,Animall,FarBody,2,12,Animall,1,1.94259086018428,2.06099432217889,1
C:\Users\Home\Downloads\psychtool\AnimalDB\AnimalDB\Animall\CloseBody\B_N815027.jpg,Animall,CloseBody,2,13,Animall,2,1.47937423852272,1.59759399690665,1
C:\Users\Home\Downloads\psychtool\AnimalDB\AnimalDB\Animall\MediumBody\M_N112057.jpg,Animall,MediumBody,2,14,Animall,2,1.49923042021692,1.61770815378986,1
C:\Users\Home\Downloads\psychtool\AnimalDB\AnimalDB\Animall\CloseBody\B_N816052.jpg,Animall,CloseBody,2,15,Animall,3,1.01997628062963,1.13756591593847,1
C:\Users\Home\Downloads\psychtool\AnimalDB\AnimalDB\Animall\MediumBody\M_N160059.jpg,Animall,MediumBody,2,16,Animall,2,1.70325159234926,1.82383263297379,1
C:\Users\Home\Downloads\psychtool\AnimalDB\AnimalDB\NonAnimall\MediumBody\Mdn_land159.jpg,NonAnimall,MediumBody,2,17,NonAnimall,3,1.65368481678888,1.77844086638652,1
C:\Users\Home\Downloads\psychtool\AnimalDB\AnimalDB\NonAnimall\CloseBody\Bdn_land809.jpg,NonAnimall,CloseBody,2,18,NonAnimall,4,0.714877064805478,0.834546303609386,1
C:\Users\Home\Downloads\psychtool\AnimalDB\AnimalDB\NonAnimall\FarBody\Fdn_nat1004.jpg,NonAnimall,FarBody,2,19,NonAnimall,5,0.653424076270312,0.778041064273566,1
C:\Users\Home\Downloads\psychtool\AnimalDB\AnimalDB\Animall\FarBody\F_N253028.jpg,Animall,FarBody,2,20,NonAnimall,3,1.36428297148086,1.48277255683206,0
C:\Users\Home\Downloads\psychtool\AnimalDB\AnimalDB\Animall\Head\H_TV646.jpg,Animall,Head,2,21,Animall,2,1.53115019761026,1.64925578329712,1
C:\Users\Home\Downloads\psychtool\AnimalDB\AnimalDB\NonAnimall\Head\Hdn_objn47.jpg,NonAnimall,Head,2,22,NonAnimall,5,0.810072643915191,0.928710377309471,1
C:\Users\Home\Downloads\psychtool\AnimalDB\AnimalDB\Animall\MediumBody\M_N136034.jpg,Animall,MediumBody,2,23,Animall,5,0.654378149658442,0.774231487186626,1
C:\Users\Home\Downloads\psychtool\AnimalDB\AnimalDB\NonAnimall\Head\Hdn_natu337.jpg,NonAnimall,Head,2,24,Animall,2,1.6699589767959,1.79079364659265,0
C:\Users\Home\Downloads\psychtool\AnimalDB\AnimalDB\Animall\MediumBody\M_N130094.jpg,Animall,MediumBody,2,25,Animall,4,0.752899355720729,0.870879312045872,1
C:\Users\Home\Downloads\psychtool\AnimalDB\AnimalDB\NonAnimall\MediumBody\Mdn_N347002.jpg,NonAnimall,MediumBody,2,26,NonAnimall,5,1.12029225076549,0.995498275151476,1
C:\Users\Home\Downloads\psychtool\AnimalDB\AnimalDB\Animall\MediumBody\M_N289058.jpg,Animall,MediumBody,2,27,Animall,1,0.930743363453075,1.04985675076023,1
C:\Users\Home\Downloads\psychtool\AnimalDB\AnimalDB\Animall\Head\H_N209039.jpg,Animall,Head,2,28,Animall,2,1.28595690988004,1.41057745344006,1
C:\Users\Home\Downloads\psychtool\AnimalDB\AnimalDB\NonAnimall\MediumBody\Mdn_N295008.jpg,NonAnimall,MediumBody,2,29,NonAnimall,4,1.213126152521,1.33154897252098,1
C:\Users\Home\Downloads\psychtool\AnimalDB\AnimalDB\Animall\FarBody\F_N827027.jpg,Animall,FarBody,2,30,Animall,2,1.4638483247254,1.58240428054705,1
C:\Users\Home\Downloads\psychtool\AnimalDB\AnimalDB\NonAnimall\Head\Hdn_N124065.jpg,NonAnimall,Head,2,31,NonAnimall,5,0.610755863133818,0.729962090030313,1
C:\Users\Home\Downloads\psychtool\AnimalDB\AnimalDB\Animall\MediumBody\M_N268010.jpg,Animall,MediumBody,2,32,Animall,2,2.22911902889609,2.34798866324127,1
C:\Users\Home\Downloads\psychtool\AnimalDB\AnimalDB\NonAnimall\MediumBody\Mdn_land313.jpg,NonAnimall,MediumBody,2,33,Animall,3,1.81987332762219,1.93769209855236,0
C:\Users\Home\Downloads\psychtool\AnimalDB\AnimalDB\NonAnimall\CloseBody\Bdn_objn102.jpg,NonAnimall,CloseBody,2,34,NonAnimall,3,1.54624470416456,1.66540668415837,1
C:\Users\Home\Downloads\psychtool\AnimalDB\AnimalDB\NonAnimall\Head\Hdn_natu354.jpg,NonAnimall,Head,2,35,Animall,2,1.15023435046896,1.26992018171586,0
C:\Users\Home\Downloads\psychtool\AnimalDB\AnimalDB\NonAnimall\CloseBody\Bdn_text6.jpg,NonAnimall,CloseBody,2,36,NonAnimall,5,0.797236703336239,0.915923819644377,1
C:\Users\Home\Downloads\psychtool\AnimalDB\AnimalDB\NonAnimall\CloseBody\Bdn_nat846.jpg,NonAnimall,CloseBody,2,37,Animall,2,1.42020154441707,1.54361794097349,0
C:\Users\Home\Downloads\psychtool\AnimalDB\AnimalDB\NonAnimall\MediumBody\Mdn_for35.jpg,NonAnimall,MediumBody,2,38,Animall,2,1.9533029505983,2.07310888054781,0
C:\Users\Home\Downloads\psychtool\AnimalDB\AnimalDB\NonAnimall\Head\Hda_int168.jpg,NonAnimall,Head,2,39,NonAnimall,4,1.48643082543276,1.60609334823675,1
C:\Users\Home\Downloads\psychtool\AnimalDB\AnimalDB\Animall\CloseBody\B_N268093.jpg,Animall,CloseBody,2,40,Animall,2,1.53618130483665,1.65545785240829,1
C:\Users\Home\Downloads\psychtool\AnimalDB\AnimalDB\NonAnimall\Head\Hdn_objn33.jpg,NonAnimall,Head,2,41,NonAnimall,5,1.0023245413322,1.12605066574179,1
C:\Users\Home\Downloads\psychtool\AnimalDB\AnimalDB\NonAnimall\MediumBody\Mdn_for22.jpg,NonAnimall,MediumBody,2,42,NonAnimall,5,1.07055401848629,0.939488442847505,1
C:\Users\Home\Downloads\psychtool\AnimalDB\AnimalDB\NonAnimall\CloseBody\Bdn_text1.jpg,NonAnimall,CloseBody,2,43,NonAnimall,4,1.1819202513434,1.30004440480843,1
C:\Users\Home\Downloads\psychtool\AnimalDB\AnimalDB\Animall\Head\H_N247091.jpg,Animall,Head,2,44,Animall,5,0.869600498117507,0.994008103385568,1
C:\Users\Home\Downloads\psychtool\AnimalDB\AnimalDB\NonAnimall\FarBody\Fdn_open19.jpg,NonAnimall,FarBody,2,45,NonAnimall,2,1.65164471976459,1.77011810755357,1
C:\Users\Home\Downloads\psychtool\AnimalDB\AnimalDB\Animall\FarBody\F_N815014.jpg,Animall,FarBody,2,46,NonAnimall,3,1.49768810067326,1.61576563701965,0
C:\Users\Home\Downloads\psychtool\AnimalDB\AnimalDB\NonAnimall\Head\Hdn_objn28.jpg,NonAnimall,Head,2,47,NonAnimall,4,0.982654433464631,1.10357009107247,1
C:\Users\Home\Downloads\psychtool\AnimalDB\AnimalDB\NonAnimall\CloseBody\Bdn_text121.jpg,NonAnimall,CloseBody,2,48,NonAnimall,4,1.06096271728165,1.17951630265452,1
C:\Users\Home\Downloads\psychtool\AnimalDB\AnimalDB\Animall\MediumBody\M_N168073.jpg,Animall,MediumBody,2,49,NonAnimall,4,1.23593581351452,1.35468890494667,0
C:\Users\Home\Downloads\psychtool\AnimalDB\AnimalDB\NonAnimall\Head\Hdn_N124055.jpg,NonAnimall,Head,2,50,NonAnimall,5,0.75352276256308,0.872808396583423,1
C:\Users\Home\Downloads\psychtool\AnimalDB\AnimalDB\Animall\MediumBody\M_N168046.jpg,Animall,MediumBody,2,51,Animall,3,1.29494337178767,1.41267760004848,1
C:\Users\Home\Downloads\psychtool\AnimalDB\AnimalDB\NonAnimall\FarBody\Fdn_land14.jpg,NonAnimall,FarBody,2,52,NonAnimall,4,0.869863608852029,0.991302327951416,1
C:\Users\Home\Downloads\psychtool\AnimalDB\AnimalDB\NonAnimall\CloseBody\Bdn_for122.jpg,NonAnimall,CloseBody,2,53,NonAnimall,5,0.77000670041889,0.891219443874434,1
C:\Users\Home\Downloads\psychtool\AnimalDB\AnimalDB\NonAnimall\MediumBody\Mdn_nat1247.jpg,NonAnimall,MediumBody,2,54,Animall,3,1.64867385802791,1.76721598650329,0
C:\Users\Home\Downloads\psychtool\AnimalDB\AnimalDB\Animall\Head\H_N825085.jpg,Animall,Head,2,55,Animall,4,1.16047987318598,1.27915276703425,1
C:\Users\Home\Downloads\psychtool\AnimalDB\AnimalDB\NonAnimall\FarBody\Fdn_natu815.jpg,NonAnimall,FarBody,2,56,Animall,2,1.6288477005437,1.74669689149596,0
C:\Users\Home\Downloads\psychtool\AnimalDB\AnimalDB\Animall\CloseBody\B_N826043.jpg,Animall,CloseBody,2,57,Animall,3,1.48668247950263,1.60496070701629,1
C:\Users\Home\Downloads\psychtool\AnimalDB\AnimalDB\Animall\FarBody\F_N815007.jpg,Animall,FarBody,2,58,NonAnimall,3,1.38650043518282,1.50974221457727,0
C:\Users\Home\Downloads\psychtool\AnimalDB\AnimalDB\Animall\FarBody\F_N408020.jpg,Animall,FarBody,2,59,NonAnimall,4,0.800976749975234,0.920019421260804,0
C:\Users\Home\Downloads\psychtool\AnimalDB\AnimalDB\NonAnimall\FarBody\Fdn_nat297.jpg,NonAnimall,FarBody,2,60,NonAnimall,5,0.695624141721055,0.813221283257008,1
C:\Users\Home\Downloads\psychtool\AnimalDB\AnimalDB\Animall\FarBody\F_N289082.jpg,Animall,FarBody,2,61,Animall,5,1.15304165682755,1.2770913366694,1
C:\Users\Home\Downloads\psychtool\AnimalDB\AnimalDB\NonAnimall\CloseBody\Bdn_nat306.jpg,NonAnimall,CloseBody,2,62,Animall,3,1.07990907272324,1.19834888027981,0
C:\Users\Home\Downloads\psychtool\AnimalDB\AnimalDB\NonAnimall\FarBody\Fdn_land951.jpg,NonAnimall,FarBody,2,63,Animall,1,1.71244427654892,1.83013820834458,0
C:\Users\Home\Downloads\psychtool\AnimalDB\AnimalDB\Animall\FarBody\F_N314028.jpg,Animall,FarBody,2,64,NonAnimall,2,2.24375091842376,2.36123349238187,0
C:\Users\Home\Downloads\psychtool\AnimalDB\AnimalDB\NonAnimall\MediumBody\Mdn_N344035.jpg,NonAnimall,MediumBody,2,65,NonAnimall,2,1.92674810718745,2.04595117364079,1
C:\Users\Home\Downloads\psychtool\AnimalDB\AnimalDB\Animall\Head\H_N707010.jpg,Animall,Head,2,66,NonAnimall,3,1.61655062390491,1.735568406526,0
C:\Users\Home\Downloads\psychtool\AnimalDB\AnimalDB\NonAnimall\MediumBody\Mdn_nat256.jpg,NonAnimall,MediumBody,2,67,Animall,1,2.02960945805535,2.1479745991528,0
C:\Users\Home\Downloads\psychtool\AnimalDB\AnimalDB\Animall\Head\H_N427068.jpg,Animall,Head,2,68,Animall,2,0.87841629376635,0.996837533311918,1
C:\Users\Home\Downloads\psychtool\AnimalDB\AnimalDB\NonAnimall\Head\Hdn_objn36.jpg,NonAnimall,Head,2,69,NonAnimall,4,1.28677192144096,1.41097804554738,1
C:\Users\Home\Downloads\psychtool\AnimalDB\AnimalDB\Animall\Head\H_N136011.jpg,Animall,Head,2,70,Animall,4,0.776691139442846,0.894587342627347,1
C:\Users\Home\Downloads\psychtool\AnimalDB\AnimalDB\NonAnimall\CloseBody\Bdn_for96.jpg,NonAnimall,CloseBody,2,71,NonAnimall,3,0.904077112907544,1.0277811139822,1
C:\Users\Home\Downloads\psychtool\AnimalDB\AnimalDB\Animall\Head\H_N247037.jpg,Animall,Head,2,72,Animall,5,0.936014272738248,0.809401434613392,1
C:\Users\Home\Downloads\psychtool\AnimalDB\AnimalDB\NonAnimall\CloseBody\Bdn_nat1006.jpg,NonAnimall,CloseBody,2,73,NonAnimall,4,1.08059924491681,1.19939421280287,1
C:\Users\Home\Downloads\psychtool\AnimalDB\AnimalDB\NonAnimall\Head\Hda_room425.jpg,NonAnimall,Head,2,74,NonAnimall,4,1.34985414333642,1.46870086435229,1
C:\Users\Home\Downloads\psychtool\AnimalDB\AnimalDB\Animall\CloseBody\B_N802036.jpg,Animall,CloseBody,2,75,NonAnimall,4,1.01577835786156,0.850640315562487,0
C:\Users\Home\Downloads\psychtool\AnimalDB\AnimalDB\NonAnimall\FarBody\Fdn_nat322.jpg,NonAnimall,FarBody,2,76,NonAnimall,3,1.15085222641937,1.26985934237018,1
C:\Users\Home\Downloads\psychtool\AnimalDB\AnimalDB\Animall\Head\H_N824044.jpg,Animall,Head,2,77,Animall,4,0.853955670958385,0.973632415756583,1
C:\Users\Home\Downloads\psychtool\AnimalDB\AnimalDB\Animall\Head\H_N209038.jpg,Animall,Head,2,78,NonAnimall,5,0.717028964310884,0.836524771060795,0
C:\Users\Home\Downloads\psychtool\AnimalDB\AnimalDB\Animall\FarBody\F_N408023.jpg,Animall,FarBody,2,79,Animall,2,1.59388160472736,1.71216812869534,1
C:\Users\Home\Downloads\psychtool\AnimalDB\AnimalDB\NonAnimall\Head\Hdn_objn45.jpg,NonAnimall,Head,2,80,NonAnimall,5,0.899045215686783,1.01714290003292,1
C:\Users\Home\Downloads\psychtool\AnimalDB\AnimalDB\NonAnimall\Head\Hdn_objn23.jpg,NonAnimall,Head,2,81,NonAnimall,5,1.41105192201212,0.94679194339551,1
C:\Users\Home\Downloads\psychtool\AnimalDB\AnimalDB\NonAnimall\CloseBody\Bdn_text20.jpg,NonAnimall,CloseBody,2,82,Animall,1,1.73453176533803,1.85404772032052,0
C:\Users\Home\Downloads\psychtool\AnimalDB\AnimalDB\Animall\FarBody\F_N310039.jpg,Animall,FarBody,2,83,Animall,2,2.06348874000832,2.18191906623542,1
C:\Users\Home\Downloads\psychtool\AnimalDB\AnimalDB\Animall\CloseBody\B_N824085.jpg,Animall,CloseBody,2,84,Animall,5,0.720517751760781,0.840723878936842,1
C:\Users\Home\Downloads\psychtool\AnimalDB\AnimalDB\Animall\Head\H_N826048.jpg,Animall,Head,2,85,Animall,2,1.73606934421696,1.8615064797923,1
C:\Users\Home\Downloads\psychtool\AnimalDB\AnimalDB\NonAnimall\FarBody\Fdn_nat194.jpg,NonAnimall,FarBody,2,86,NonAnimall,4,1.23564623342827,1.35474105295725,1
C:\Users\Home\Downloads\psychtool\AnimalDB\AnimalDB\NonAnimall\CloseBody\Bdn_N44065.jpg,NonAnimall,CloseBody,2,87,NonAnimall,3,1.8531454000622,1.972977404017,1
C:\Users\Home\Downloads\psychtool\AnimalDB\AnimalDB\NonAnimall\MediumBody\Mda_archi37.jpg,NonAnimall,MediumBody,2,88,NonAnimall,4,0.830902652116492,0.949882113840431,1
C:\Users\Home\Downloads\psychtool\AnimalDB\AnimalDB\Animall\FarBody\F_N408098.jpg,Animall,FarBody,2,89,Animall,2,1.99560099118389,2.11369511997327,1
C:\Users\Home\Downloads\psychtool\AnimalDB\AnimalDB\NonAnimall\Head\Hdn_objn27.jpg,NonAnimall,Head,2,90,NonAnimall,4,1.39740096987225,1.51575504918583,1
C:\Users\Home\Downloads\psychtool\AnimalDB\AnimalDB\Animall\FarBody\F_N825003.jpg,Animall,FarBody,2,91,NonAnimall,3,1.36276514548808,1.48161897761747,0
C:\Users\Home\Downloads\psychtool\AnimalDB\AnimalDB\Animall\CloseBody\B_N816055.jpg,Animall,CloseBody,2,92,Animall,2,2.00360137992539,2.12277718703263,1
C:\Users\Home\Downloads\psychtool\AnimalDB\AnimalDB\NonAnimall\CloseBody\Bdn_nat463.jpg,NonAnimall,CloseBody,2,93,NonAnimall,4,1.10240031429566,1.22512219240889,1
C:\Users\Home\Downloads\psychtool\AnimalDB\AnimalDB\NonAnimall\MediumBody\Mdn_N228004.jpg,NonAnimall,MediumBody,2,94,NonAnimall,5,0.764562358846888,0.883034166414291,1
C:\Users\Home\Downloads\psychtool\AnimalDB\AnimalDB\Animall\CloseBody\B_N771029.jpg,Animall,CloseBody,2,95,Animall,5,0.653847977053374,0.775639486033469,1
C:\Users\Home\Downloads\psychtool\AnimalDB\AnimalDB\Animall\FarBody\F_N408047.jpg,Animall,FarBody,2,96,Animall,1,2.41961132269353,2.54198989295401,1
C:\Users\Home\Downloads\psychtool\AnimalDB\AnimalDB\Animall\FarBody\F_N541063.jpg,Animall,FarBody,2,97,NonAnimall,3,2.20297741983086,2.32292833738029,0
C:\Users\Home\Downloads\psychtool\AnimalDB\AnimalDB\Animall\FarBody\F_N408063.jpg,Animall,FarBody,2,98,Animall,1,2.93288104073144,3.05299551365897,1
C:\Users\Home\Downloads\psychtool\AnimalDB\AnimalDB\Animall\FarBody\F_N168008.jpg,Animall,FarBody,2,99,NonAnimall,4,1.3833000427112,1.50140720861964,0
C:\Users\Home\Downloads\psychtool\AnimalDB\AnimalDB\NonAnimall\FarBody\Fdn_natu649.jpg,NonAnimall,FarBody,2,100,NonAnimall,4,0.876072394195944,0.995703706983477,1
C:\Users\Home\Downloads\psychtool\AnimalDB\AnimalDB\NonAnimall\FarBody\Fdn_nat895.jpg,NonAnimall,FarBody,2,101,NonAnimall,3,0.898165808990598,1.01727682584897,1
C:\Users\Home\Downloads\psychtool\AnimalDB\AnimalDB\Animall\CloseBody\B_N815065.jpg,Animall,CloseBody,2,102,Animall,5,0.936368247726932,1.05876657087356,1
C:\Users\Home\Downloads\psychtool\AnimalDB\AnimalDB\NonAnimall\FarBody\Fdn_bea1.jpg,NonAnimall,FarBody,2,103,NonAnimall,5,0.848084268160164,0.96642333525233,1
C:\Users\Home\Downloads\psychtool\AnimalDB\AnimalDB\NonAnimall\CloseBody\Bdn_land375.jpg,NonAnimall,CloseBody,2,104,NonAnimall,2,2.06991006806493,2.18937980104238,1
C:\Users\Home\Downloads\psychtool\AnimalDB\AnimalDB\Animall\FarBody\F_N286096.jpg,Animall,FarBody,2,105,NonAnimall,1,1.74954765476286,1.86935753538273,0
C:\Users\Home\Downloads\psychtool\AnimalDB\AnimalDB\NonAnimall\FarBody\Fdn_nat283.jpg,NonAnimall,FarBody,2,106,NonAnimall,5,0.715732767712325,0.834215637296438,1
C:\Users\Home\Downloads\psychtool\AnimalDB\AnimalDB\Animall\Head\H_N134043.jpg,Animall,Head,2,107,Animall,5,0.629970465321094,0.747903804061934,1
C:\Users\Home\Downloads\psychtool\AnimalDB\AnimalDB\Animall\FarBody\F_N253065.jpg,Animall,FarBody,2,108,NonAnimall,4,1.86980909039266,1.98921561334282,0
C:\Users\Home\Downloads\psychtool\AnimalDB\AnimalDB\Animall\Head\H_N816021.jpg,Animall,Head,2,109,Animall,5,0.642830504570156,0.76128769479692,1
C:\Users\Home\Downloads\psychtool\AnimalDB\AnimalDB\Animall\MediumBody\M_N123033.jpg,Animall,MediumBody,2,110,Animall,2,2.18197990581393,2.3001763552893,1
C:\Users\Home\Downloads\psychtool\AnimalDB\AnimalDB\Animall\MediumBody\M_N130010.jpg,Animall,MediumBody,2,111,NonAnimall,5,0.865777093684301,0.983845543814823,0
C:\Users\Home\Downloads\psychtool\AnimalDB\AnimalDB\Animall\Head\H_N134022.jpg,Animall,Head,2,112,NonAnimall,4,0.751258270582184,0.869740349706262,0
C:\Users\Home\Downloads\psychtool\AnimalDB\AnimalDB\Animall\FarBody\F_N815088.jpg,Animall,FarBody,2,113,NonAnimall,4,1.44544241344556,1.5635673571378,0
C:\Users\Home\Downloads\psychtool\AnimalDB\AnimalDB\NonAnimall\MediumBody\Mdn_nat634.jpg,NonAnimall,MediumBody,2,114,NonAnimall,2,1.28695957572199,1.41005715751089,1
C:\Users\Home\Downloads\psychtool\AnimalDB\AnimalDB\NonAnimall\FarBody\Fdn_land11.jpg,NonAnimall,FarBody,2,115,NonAnimall,3,1.46804980305023,1.58620319119655,1
C:\Users\Home\Downloads\psychtool\AnimalDB\AnimalDB\Animall\FarBody\F_N408054.jpg,Animall,FarBody,2,116,NonAnimall,4,0.694901574403048,0.812799752922729,0
C:\Users\Home\Downloads\psychtool\AnimalDB\AnimalDB\NonAnimall\Head\Hdn_objn25.jpg,NonAnimall,Head,2,117,NonAnimall,4,0.683713434962556,0.80316183459945,1
C:\Users\Home\Downloads\psychtool\AnimalDB\AnimalDB\Animall\Head\H_N471006.jpg,Animall,Head,2,118,NonAnimall,4,0.851938092382625,0.97055093687959,0
C:\Users\Home\Downloads\psychtool\AnimalDB\AnimalDB\Animall\MediumBody\M_N314023.jpg,Animall,MediumBody,2,119,NonAnimall,4,0.736356158973649,0.85511991684325,0
C:\Users\Home\Downloads\psychtool\AnimalDB\AnimalDB\NonAnimall\MediumBody\Mdn_natu961.jpg,NonAnimall,MediumBody,2,120,NonAnimall,5,0.703269370133057,0.826248433673754,1
C:\Users\Home\Downloads\psychtool\AnimalDB\AnimalDB\Animall\MediumBody\M_N314056.jpg,Animall,MediumBody,3,1,NonAnimall,3,1.31156123522669,1.43021793174557,0
C:\Users\Home\Downloads\psychtool\AnimalDB\AnimalDB\Animall\Head\H_N802037.jpg,Animall,Head,3,2,Animall,4,0.995666966307908,1.11357067571953,1
C:\Users\Home\Downloads\psychtool\AnimalDB\AnimalDB\Animall\CloseBody\B_N326074.jpg,Animall,CloseBody,3,3,Animall,5,0.603355177445337,0.724385403096676,1
C:\Users\Home\Downloads\psychtool\AnimalDB\AnimalDB\Animall\MediumBody\M_N173021.jpg,Animall,MediumBody,3,4,Animall,5,0.87942251493223,0.998347063083202,1
C:\Users\Home\Downloads\psychtool\AnimalDB\AnimalDB\NonAnimall\FarBody\Fdn_bea10.jpg,NonAnimall,FarBody,3,5,NonAnimall,4,1.08657138841227,1.20849998341873,1
C:\Users\Home\Downloads\psychtool\AnimalDB\AnimalDB\Animall\Head\H_N247033.jpg,Animall,Head,3,6,Animall,5,0.720352220814675,0.844604172278196,1
C:\Users\Home\Downloads\psychtool\AnimalDB\AnimalDB\Animall\MediumBody\M_N289015.jpg,Animall,MediumBody,3,7,Animall,3,1.58674719068222,1.7084411191754,1
C:\Users\Home\Downloads\psychtool\AnimalDB\AnimalDB\NonAnimall\MediumBody\Mdn_N291096.jpg,NonAnimall,MediumBody,3,8,NonAnimall,4,0.935874421149492,1.0571871153079,1
C:\Users\Home\Downloads\psychtool\AnimalDB\AnimalDB\Animall\Head\H_N816047.jpg,Animall,Head,3,9,Animall,3,1.21999627072364,1.34186165593565,1
C:\Users\Home\Downloads\psychtool\AnimalDB\AnimalDB\NonAnimall\CloseBody\Bdn_text83.jpg,NonAnimall,CloseBody,3,10,NonAnimall,3,1.6965339682065,1.81494177575223,1
C:\Users\Home\Downloads\psychtool\AnimalDB\AnimalDB\NonAnimall\MediumBody\Mdn_land53.jpg,NonAnimall,MediumBody,3,11,NonAnimall,4,1.11959338700399,1.23879566323012,1
C:\Users\Home\Downloads\psychtool\AnimalDB\AnimalDB\Animall\MediumBody\M_N253027.jpg,Animall,MediumBody,3,12,Animall,5,0.995092547265813,1.11432366282679,1
C:\Users\Home\Downloads\psychtool\AnimalDB\AnimalDB\NonAnimall\FarBody\Fdn_land356.jpg,NonAnimall,FarBody,3,13,NonAnimall,5,0.786598489619792,0.910975280217826,1
C:\Users\Home\Downloads\psychtool\AnimalDB\AnimalDB\Animall\FarBody\F_N816036.jpg,Animall,FarBody,3,14,NonAnimall,3,2.00304671353661,2.12313590268604,0
C:\Users\Home\Downloads\psychtool\AnimalDB\AnimalDB\NonAnimall\FarBody\Fdn_land386.jpg,NonAnimall,FarBody,3,15,NonAnimall,4,1.13669757102616,1.25733392010443,1
C:\Users\Home\Downloads\psychtool\AnimalDB\AnimalDB\Animall\Head\H_N427028.jpg,Animall,Head,3,16,Animall,3,2.81949248840101,2.94059461494908,1
C:\Users\Home\Downloads\psychtool\AnimalDB\AnimalDB\NonAnimall\FarBody\Fdn_nat168.jpg,NonAnimall,FarBody,3,17,NonAnimall,4,1.01840670150705,1.13770458265208,1
C:\Users\Home\Downloads\psychtool\AnimalDB\AnimalDB\NonAnimall\Head\Hdn_land840.jpg,NonAnimall,Head,3,18,NonAnimall,4,1.281069210032,1.39984007924795,1
C:\Users\Home\Downloads\psychtool\AnimalDB\AnimalDB\NonAnimall\FarBody\Fdn_sclos3.jpg,NonAnimall,FarBody,3,19,NonAnimall,3,1.06396715925075,1.18218770786189,1
C:\Users\Home\Downloads\psychtool\AnimalDB\AnimalDB\Animall\FarBody\F_N541004.jpg,Animall,FarBody,3,20,NonAnimall,2,2.09145908826031,2.21303449827246,0
C:\Users\Home\Downloads\psychtool\AnimalDB\AnimalDB\Animall\MediumBody\M_N173002.jpg,Animall,MediumBody,3,21,Animall,5,0.602123771095648,0.720231727231294,1
C:\Users\Home\Downloads\psychtool\AnimalDB\AnimalDB\Animall\Head\H_N828096.jpg,Animall,Head,3,22,Animall,5,0.620176102500409,0.739277243148535,1
C:\Users\Home\Downloads\psychtool\AnimalDB\AnimalDB\Animall\MediumBody\M_N136096.jpg,Animall,MediumBody,3,23,Animall,3,1.53549982397817,1.65361133543774,1
C:\Users\Home\Downloads\psychtool\AnimalDB\AnimalDB\NonAnimall\CloseBody\Bdn_land378.jpg,NonAnimall,CloseBody,3,24,Animall,2,1.33644575881772,1.45994116738439,0
C:\Users\Home\Downloads\psychtool\AnimalDB\AnimalDB\NonAnimall\CloseBody\Bdn_land71.jpg,NonAnimall,CloseBody,3,25,Animall,1,2.31346701155417,2.43108904222026,0
C:\Users\Home\Downloads\psychtool\AnimalDB\AnimalDB\NonAnimall\CloseBody\Bdn_natu379.jpg,NonAnimall,CloseBody,3,26,NonAnimall,3,1.56622256501578,1.68555442127399,1
C:\Users\Home\Downloads\psychtool\AnimalDB\AnimalDB\Animall\MediumBody\M_N415038.jpg,Animall,MediumBody,3,27,Animall,3,1.61196870170534,1.7302026823163,1
C:\Users\Home\Downloads\psychtool\AnimalDB\AnimalDB\NonAnimall\FarBody\Fdn_bea25.jpg,NonAnimall,FarBody,3,28,NonAnimall,3,0.920058137271553,1.04302021279,1
C:\Users\Home\Downloads\psychtool\AnimalDB\AnimalDB\NonAnimall\CloseBody\Bda_urb286.jpg,NonAnimall,CloseBody,3,29,NonAnimall,4,1.08073791139759,1.19847569521517,1
C:\Users\Home\Downloads\psychtool\AnimalDB\AnimalDB\Animall\Head\H_N173047.jpg,Animall,Head,3,30,Animall,5,0.877260343870148,0.995337880216539,1
C:\Users\Home\Downloads\psychtool\AnimalDB\AnimalDB\NonAnimall\FarBody\Fdn_open16.jpg,NonAnimall,FarBody,3,31,NonAnimall,3,1.81867510615848,1.93725634599105,1
C:\Users\Home\Downloads\psychtool\AnimalDB\AnimalDB\NonAnimall\MediumBody\Mda_urb951.jpg,NonAnimall,MediumBody,3,32,NonAnimall,4,0.78691809438169,0.910166194429621,1
C:\Users\Home\Downloads\psychtool\AnimalDB\AnimalDB\Animall\CloseBody\B_N825059.jpg,Animall,CloseBody,3,33,Animall,3,1.56941426615231,1.69041841733269,1
C:\Users\Home\Downloads\psychtool\AnimalDB\AnimalDB\Animall\CloseBody\B_N816066.jpg,Animall,CloseBody,3,34,NonAnimall,5,0.883226956473663,1.00149333220907,0
C:\Users\Home\Downloads\psychtool\AnimalDB\AnimalDB\NonAnimall\FarBody\Fdn_nat1251.jpg,NonAnimall,FarBody,3,35,NonAnimall,5,0.695810215780511,0.81419076398015,1
C:\Users\Home\Downloads\psychtool\AnimalDB\AnimalDB\Animall\CloseBody\B_N815023.jpg,Animall,CloseBody,3,36,Animall,5,0.695916882250458,0.813877085223794,1
C:\Users\Home\Downloads\psychtool\AnimalDB\AnimalDB\NonAnimall\MediumBody\Mdn_natu42.jpg,NonAnimall,MediumBody,3,37,Animall,1,2.11974232504144,2.23998756334186,0
C:\Users\Home\Downloads\psychtool\AnimalDB\AnimalDB\Animall\FarBody\F_N676061.jpg,Animall,FarBody,3,38,Animall,1,1.93583214958198,2.05390296992846,1
C:\Users\Home\Downloads\psychtool\AnimalDB\AnimalDB\NonAnimall\Head\Hdn_objn44.jpg,NonAnimall,Head,3,39,NonAnimall,5,0.703515098663047,0.824544928735122,1
C:\Users\Home\Downloads\psychtool\AnimalDB\AnimalDB\NonAnimall\MediumBody\Mdn_land170.jpg,NonAnimall,MediumBody,3,40,NonAnimall,4,1.1694943846669,1.29172204108909,1
C:\Users\Home\Downloads\psychtool\AnimalDB\AnimalDB\Animall\FarBody\F_N485023.jpg,Animall,FarBody,3,41,NonAnimall,2,1.68472755770199,1.80292321741581,0
C:\Users\Home\Downloads\psychtool\AnimalDB\AnimalDB\NonAnimall\CloseBody\Bdn_objn152.jpg,NonAnimall,CloseBody,3,42,Animall,2,1.76283633569255,1.88133579748683,0
C:\Users\Home\Downloads\psychtool\AnimalDB\AnimalDB\Animall\MediumBody\M_N268045.jpg,Animall,MediumBody,3,43,Animall,2,1.60277601750568,1.72210945398547,1
C:\Users\Home\Downloads\psychtool\AnimalDB\AnimalDB\Animall\Head\H_N134031.jpg,Animall,Head,3,44,Animall,4,0.909545552916825,1.02855780464597,1
C:\Users\Home\Downloads\psychtool\AnimalDB\AnimalDB\NonAnimall\FarBody\Fdn_nat1238.jpg,NonAnimall,FarBody,3,45,NonAnimall,4,1.62765224487521,1.74616158334538,1
C:\Users\Home\Downloads\psychtool\AnimalDB\AnimalDB\NonAnimall\MediumBody\Mdn_natu590.jpg,NonAnimall,MediumBody,3,46,NonAnimall,4,1.56988517940044,1.42737348936498,1
C:\Users\Home\Downloads\psychtool\AnimalDB\AnimalDB\Animall\FarBody\F_N213016.jpg,Animall,FarBody,3,47,NonAnimall,4,0.763903001323342,0.882997820852324,0
C:\Users\Home\Downloads\psychtool\AnimalDB\AnimalDB\NonAnimall\Head\Hda_room421.jpg,NonAnimall,Head,3,48,NonAnimall,5,0.853384017013013,0.9764073274564,1
C:\Users\Home\Downloads\psychtool\AnimalDB\AnimalDB\NonAnimall\FarBody\Fdn_open5.jpg,NonAnimall,FarBody,3,49,NonAnimall,5,0.866256303386763,0.985523369396105,1
C:\Users\Home\Downloads\psychtool\AnimalDB\AnimalDB\Animall\FarBody\F_N824056.jpg,Animall,FarBody,3,50,NonAnimall,3,1.69738769601099,1.81556083704345,0
C:\Users\Home\Downloads\psychtool\AnimalDB\AnimalDB\Animall\FarBody\F_N209015.jpg,Animall,FarBody,3,51,NonAnimall,4,0.899290943751112,1.01797213382088,0
C:\Users\Home\Downloads\psychtool\AnimalDB\AnimalDB\NonAnimall\CloseBody\Bdn_text21.jpg,NonAnimall,CloseBody,3,52,NonAnimall,5,0.887134508928284,1.00668799458072,1
C:\Users\Home\Downloads\psychtool\AnimalDB\AnimalDB\Animall\Head\H_N247007.jpg,Animall,Head,3,53,Animall,3,1.50337817030959,1.62761550419964,1
C:\Users\Home\Downloads\psychtool\AnimalDB\AnimalDB\Animall\FarBody\F_N408060.jpg,Animall,FarBody,3,54,Animall,3,1.71771439583972,1.83747568400577,1
C:\Users\Home\Downloads\psychtool\AnimalDB\AnimalDB\Animall\MediumBody\M_N109065.jpg,Animall,MediumBody,3,55,Animall,2,1.58690047450364,1.70707934256643,1
C:\Users\Home\Downloads\psychtool\AnimalDB\AnimalDB\NonAnimall\FarBody\Fdn_natu176.jpg,NonAnimall,FarBody,3,56,NonAnimall,4,1.60992860444821,1.72878599190153,1
C:\Users\Home\Downloads\psychtool\AnimalDB\AnimalDB\Animall\FarBody\F_N815052.jpg,Animall,FarBody,3,57,NonAnimall,3,1.07001752499491,1.19300369941629,0
C:\Users\Home\Downloads\psychtool\AnimalDB\AnimalDB\NonAnimall\CloseBody\Bdn_for153.jpg,NonAnimall,CloseBody,3,58,NonAnimall,4,0.798868702026084,0.917624163674191,1
C:\Users\Home\Downloads\psychtool\AnimalDB\AnimalDB\Animall\FarBody\F_N314093.jpg,Animall,FarBody,3,59,Animall,2,1.9857240607962,2.10445897933096,1
C:\Users\Home\Downloads\psychtool\AnimalDB\AnimalDB\NonAnimall\Head\Hdn_N124064.jpg,NonAnimall,Head,3,60,NonAnimall,5,0.852936017559841,0.97159192385152,1
C:\Users\Home\Downloads\psychtool\AnimalDB\AnimalDB\Animall\Head\H_N134015.jpg,Animall,Head,3,61,Animall,5,0.587222449714318,0.708879242185503,1
C:\Users\Home\Downloads\psychtool\AnimalDB\AnimalDB\NonAnimall\CloseBody\Bdn_text22.jpg,NonAnimall,CloseBody,3,62,NonAnimall,4,1.62769491132349,1.74609442288056,1
C:\Users\Home\Downloads\psychtool\AnimalDB\AnimalDB\Animall\MediumBody\M_N112005.jpg,Animall,MediumBody,3,63,NonAnimall,4,0.81888764933683,0.943881130777299,0
C:\Users\Home\Downloads\psychtool\AnimalDB\AnimalDB\NonAnimall\CloseBody\Bdn_nat267.jpg,NonAnimall,CloseBody,3,64,NonAnimall,4,1.34744782419875,1.46630205144174,1
C:\Users\Home\Downloads\psychtool\AnimalDB\AnimalDB\NonAnimall\MediumBody\Mdn_N328089.jpg,NonAnimall,MediumBody,3,65,NonAnimall,4,0.885825670324266,1.01099416427314,1
C:\Users\Home\Downloads\psychtool\AnimalDB\AnimalDB\Animall\CloseBody\B_N289052.jpg,Animall,CloseBody,3,66,Animall,2,2.14921430172399,2.26782122044824,1
C:\Users\Home\Downloads\psychtool\AnimalDB\AnimalDB\Animall\MediumBody\M_N707090.jpg,Animall,MediumBody,3,67,Animall,3,1.39369963947684,1.096307676984,1
C:\Users\Home\Downloads\psychtool\AnimalDB\AnimalDB\NonAnimall\MediumBody\Mdn_land82.jpg,NonAnimall,MediumBody,3,68,NonAnimall,4,1.46961306105368,1.20852092164569,1
C:\Users\Home\Downloads\psychtool\AnimalDB\AnimalDB\NonAnimall\Head\Hdn_natu623.jpg,NonAnimall,Head,3,69,Animall,1,2.45251085236669,2.57763667940162,0
C:\Users\Home\Downloads\psychtool\AnimalDB\AnimalDB\NonAnimall\FarBody\Fdn_open12.jpg,NonAnimall,FarBody,3,70,NonAnimall,3,2.25119980145246,2.36958706588484,1
C:\Users\Home\Downloads\psychtool\AnimalDB\AnimalDB\Animall\Head\H_N824009.jpg,Animall,Head,3,71,Animall,5,0.714572867611423,0.832339490531012,1
C:\Users\Home\Downloads\psychtool\AnimalDB\AnimalDB\NonAnimall\MediumBody\Mdn_nat492.jpg,NonAnimall,MediumBody,3,72,Animall,3,1.48545581381768,1.60479478142224,0
C:\Users\Home\Downloads\psychtool\AnimalDB\AnimalDB\NonAnimall\CloseBody\Bdn_natu156.jpg,NonAnimall,CloseBody,3,73,NonAnimall,2,2.61955269565806,2.74186726566404,1
C:\Users\Home\Downloads\psychtool\AnimalDB\AnimalDB\Animall\Head\H_N802027.jpg,Animall,Head,3,74,Animall,2,1.90345844672993,2.02525351103395,1
C:\Users\Home\Downloads\psychtool\AnimalDB\AnimalDB\NonAnimall\MediumBody\Mdn_nat164.jpg,NonAnimall,MediumBody,3,75,NonAnimall,2,2.74351072125137,2.86150213424116,1
C:\Users\Home\Downloads\psychtool\AnimalDB\AnimalDB\NonAnimall\MediumBody\Mdn_nat363.jpg,NonAnimall,MediumBody,3,76,NonAnimall,3,1.15322536043823,1.27330862358212,1
C:\Users\Home\Downloads\psychtool\AnimalDB\AnimalDB\Animall\FarBody\F_N676041.jpg,Animall,FarBody,3,77,Animall,1,1.98048870684579,2.09917147713713,1
C:\Users\Home\Downloads\psychtool\AnimalDB\AnimalDB\NonAnimall\CloseBody\Bdn_for23.jpg,NonAnimall,CloseBody,3,78,NonAnimall,4,1.1530116321519,1.2770644724369,1
C:\Users\Home\Downloads\psychtool\AnimalDB\AnimalDB\NonAnimall\Head\Hdn_natu370.jpg,NonAnimall,Head,3,79,Animall,1,2.03650841559283,2.15568659314886,0
C:\Users\Home\Downloads\psychtool\AnimalDB\AnimalDB\Animall\CloseBody\B_N828097.jpg,Animall,CloseBody,3,80,Animall,2,1.33619608008303,1.45377386361361,1
C:\Users\Home\Downloads\psychtool\AnimalDB\AnimalDB\Animall\MediumBody\M_N253003.jpg,Animall,MediumBody,3,81,Animall,4,1.26560295070522,1.00077115977183,1
C:\Users\Home\Downloads\psychtool\AnimalDB\AnimalDB\Animall\Head\H_N408065.jpg,Animall,Head,3,82,NonAnimall,4,1.35331172076985,1.27215622924268,0
C:\Users\Home\Downloads\psychtool\AnimalDB\AnimalDB\NonAnimall\CloseBody\Bdn_nat331.jpg,NonAnimall,CloseBody,3,83,NonAnimall,3,1.64710980956443,1.76520077814348,1
C:\Users\Home\Downloads\psychtool\AnimalDB\AnimalDB\Animall\CloseBody\B_N815074.jpg,Animall,CloseBody,3,84,Animall,1,1.42010751971975,1.54449339699931,1
C:\Users\Home\Downloads\psychtool\AnimalDB\AnimalDB\NonAnimall\Head\Hdn_objn112.jpg,NonAnimall,Head,3,85,NonAnimall,4,0.999620345886797,1.1193172391504,1
C:\Users\Home\Downloads\psychtool\AnimalDB\AnimalDB\NonAnimall\MediumBody\Mdn_N347003.jpg,NonAnimall,MediumBody,3,86,NonAnimall,5,0.777304274728522,0.895557218231261,1
C:\Users\Home\Downloads\psychtool\AnimalDB\AnimalDB\Animall\CloseBody\B_N289048.jpg,Animall,CloseBody,3,87,Animall,5,1.29309764504433,1.41130831697956,1
C:\Users\Home\Downloads\psychtool\AnimalDB\AnimalDB\Animall\Head\H_N173097.jpg,Animall,Head,3,88,Animall,3,1.36989876953885,1.48862855206244,1
C:\Users\Home\Downloads\psychtool\AnimalDB\AnimalDB\NonAnimall\MediumBody\Mdn_natu425.jpg,NonAnimall,MediumBody,3,89,Animall,2,1.01998852728866,1.13847771775909,0
C:\Users\Home\Downloads\psychtool\AnimalDB\AnimalDB\NonAnimall\Head\Hdn_text6.jpg,NonAnimall,Head,3,90,NonAnimall,5,1.18655511178076,1.04247463308275,1
C:\Users\Home\Downloads\psychtool\AnimalDB\AnimalDB\NonAnimall\Head\Hdn_objn181.jpg,NonAnimall,Head,3,91,NonAnimall,5,1.12983693461865,0.965581459226087,1
C:\Users\Home\Downloads\psychtool\AnimalDB\AnimalDB\Animall\MediumBody\M_N160002.jpg,Animall,MediumBody,3,92,NonAnimall,4,1.51535959285684,1.63372394372709,0
C:\Users\Home\Downloads\psychtool\AnimalDB\AnimalDB\NonAnimall\CloseBody\Bdn_text15.jpg,NonAnimall,CloseBody,3,93,NonAnimall,4,0.930395314237103,1.04914722056128,1
C:\Users\Home\Downloads\psychtool\AnimalDB\AnimalDB\Animall\MediumBody\M_N289050.jpg,Animall,MediumBody,3,94,Animall,1,1.702242605621,1.82624408788979,1
C:\Users\Home\Downloads\psychtool\AnimalDB\AnimalDB\NonAnimall\FarBody\Fdn_nat376.jpg,NonAnimall,FarBody,3,95,NonAnimall,2,1.88054923014715,1.99964562989771,1
C:\Users\Home\Downloads\psychtool\AnimalDB\AnimalDB\Animall\FarBody\F_N168041.jpg,Animall,FarBody,3,96,Animall,1,1.96475104009733,2.08319084788673,1
C:\Users\Home\Downloads\psychtool\AnimalDB\AnimalDB\NonAnimall\MediumBody\Mdn_natu35.jpg,NonAnimall,MediumBody,3,97,NonAnimall,1,2.0363571071066,2.15756827057339,1
C:\Users\Home\Downloads\psychtool\AnimalDB\AnimalDB\NonAnimall\MediumBody\Mdn_N295009.jpg,NonAnimall,MediumBody,3,98,Animall,2,1.2135144979693,1.33201988576911,0
C:\Users\Home\Downloads\psychtool\AnimalDB\AnimalDB\NonAnimall\MediumBody\Mdn_for68.jpg,NonAnimall,MediumBody,3,99,NonAnimall,2,2.8498197728768,2.96889128396288,1
C:\Users\Home\Downloads\psychtool\AnimalDB\AnimalDB\Animall\CloseBody\B_N253063.jpg,Animall,CloseBody,3,100,Animall,3,1.27037213183939,1.39405875047669,1
C:\Users\Home\Downloads\psychtool\AnimalDB\AnimalDB\Animall\MediumBody\M_N289038.jpg,Animall,MediumBody,3,101,Animall,2,1.31995154963806,1.4385146163404,1
C:\Users\Home\Downloads\psychtool\AnimalDB\AnimalDB\Animall\MediumBody\M_N112050.jpg,Animall,MediumBody,3,102,Animall,1,2.11898459726945,2.24286084505729,1
C:\Users\Home\Downloads\psychtool\AnimalDB\AnimalDB\NonAnimall\CloseBody\Bdn_text16.jpg,NonAnimall,CloseBody,3,103,Animall,3,1.51788245514035,1.63681964506395,0
C:\Users\Home\Downloads\psychtool\AnimalDB\AnimalDB\Animall\Head\H_N815032.jpg,Animall,Head,3,104,Animall,3,1.7525121953804,1.8718559036497,1
C:\Users\Home\Downloads\psychtool\AnimalDB\AnimalDB\NonAnimall\FarBody\Fdn_open18.jpg,NonAnimall,FarBody,3,105,NonAnimall,4,0.786608366295695,0.907579332124442,1
C:\Users\Home\Downloads\psychtool\AnimalDB\AnimalDB\Animall\CloseBody\B_N824008.jpg,Animall,CloseBody,3,106,Animall,4,0.83527203137055,0.954303245758638,1
C:\Users\Home\Downloads\psychtool\AnimalDB\AnimalDB\Animall\Head\H_N253061.jpg,Animall,Head,3,107,Animall,4,0.718848222168162,0.836968030082062,1
C:\Users\Home\Downloads\psychtool\AnimalDB\AnimalDB\Animall\MediumBody\M_N130060.jpg,Animall,MediumBody,3,108,Animall,5,0.769889762159437,0.893272973131388,1
C:\Users\Home\Downloads\psychtool\AnimalDB\AnimalDB\NonAnimall\FarBody\Fdn_open6.jpg,NonAnimall,FarBody,3,109,NonAnimall,4,1.293537348276,1.41147582302801,1
C:\Users\Home\Downloads\psychtool\AnimalDB\AnimalDB\NonAnimall\CloseBody\Bdn_natu977.jpg,NonAnimall,CloseBody,3,110,NonAnimall,2,1.8277836421039,1.94640517816879,1
C:\Users\Home\Downloads\psychtool\AnimalDB\AnimalDB\NonAnimall\MediumBody\Mdn_nat763.jpg,NonAnimall,MediumBody,3,111,NonAnimall,3,1.1699498903472,1.29211433720775,1
C:\Users\Home\Downloads\psychtool\AnimalDB\AnimalDB\Animall\MediumBody\M_N130005.jpg,Animall,MediumBody,3,112,NonAnimall,3,1.54407226154581,1.66248441464268,0
C:\Users\Home\Downloads\psychtool\AnimalDB\AnimalDB\Animall\FarBody\F_N173011.jpg,Animall,FarBody,3,113,NonAnimall,4,1.10279221506789,1.2216073309537,0
C:\Users\Home\Downloads\psychtool\AnimalDB\AnimalDB\NonAnimall\MediumBody\Mdn_natu412.jpg,NonAnimall,MediumBody,3,114,NonAnimall,5,0.979379769414663,1.09770500916056,1
C:\Users\Home\Downloads\psychtool\AnimalDB\AnimalDB\NonAnimall\CloseBody\Bdn_text111.jpg,NonAnimall,CloseBody,3,115,NonAnimall,4,1.1165257350076,1.23452623444609,1
C:\Users\Home\Downloads\psychtool\AnimalDB\AnimalDB\NonAnimall\CloseBody\Bdn_land859.jpg,NonAnimall,CloseBody,3,116,Animall,5,0.794932310236618,0.913504463387653,0
C:\Users\Home\Downloads\psychtool\AnimalDB\AnimalDB\NonAnimall\MediumBody\Mdn_text38.jpg,NonAnimall,MediumBody,3,117,NonAnimall,3,2.56447994895279,2.68363047204912,1
C:\Users\Home\Downloads\psychtool\AnimalDB\AnimalDB\Animall\CloseBody\B_N247043.jpg,Animall,CloseBody,3,118,Animall,3,1.1702702853363,1.29431087849662,1
C:\Users\Home\Downloads\psychtool\AnimalDB\AnimalDB\Animall\MediumBody\M_N130078.jpg,Animall,MediumBody,3,119,NonAnimall,2,1.7955786306411,1.913543574512,0
C:\Users\Home\Downloads\psychtool\AnimalDB\AnimalDB\Animall\MediumBody\M_N173020.jpg,Animall,MediumBody,3,120,Animall,2,1.91975789051503,2.03802150092088,1
C:\Users\Home\Downloads\psychtool\AnimalDB\AnimalDB\Animall\FarBody\F_N828028.jpg,Animall,FarBody,4,1,Animall,3,1.55354583426379,1.67348371492699,1
C:\Users\Home\Downloads\psychtool\AnimalDB\AnimalDB\NonAnimall\MediumBody\Mdn_N295007.jpg,NonAnimall,MediumBody,4,2,NonAnimall,3,1.13596749748103,1.25741530256346,1
C:\Users\Home\Downloads\psychtool\AnimalDB\AnimalDB\NonAnimall\MediumBody\Mdn_N328025.jpg,NonAnimall,MediumBody,4,3,NonAnimall,3,1.67989121610299,1.79869487509131,1
C:\Users\Home\Downloads\psychtool\AnimalDB\AnimalDB\NonAnimall\CloseBody\Bdn_objn94.jpg,NonAnimall,CloseBody,4,4,NonAnimall,4,1.05238948925398,1.17202159250155,1
C:\Users\Home\Downloads\psychtool\AnimalDB\AnimalDB\Animall\CloseBody\B_N815060.jpg,Animall,CloseBody,4,5,Animall,4,1.16983927320689,1.2885959201958,1
C:\Users\Home\Downloads\psychtool\AnimalDB\AnimalDB\Animall\FarBody\F_N828023.jpg,Animall,FarBody,4,6,NonAnimall,2,2.08610403072089,2.20782995922491,0
C:\Users\Home\Downloads\psychtool\AnimalDB\AnimalDB\Animall\Head\H_N415079.jpg,Animall,Head,4,7,Animall,5,0.784868910675868,0.903278298676014,1
C:\Users\Home\Downloads\psychtool\AnimalDB\AnimalDB\NonAnimall\FarBody\Fdn_sclos2.jpg,NonAnimall,FarBody,4,8,NonAnimall,4,0.952771987998858,1.07216033805162,1
C:\Users\Home\Downloads\psychtool\AnimalDB\AnimalDB\Animall\MediumBody\M_N123078.jpg,Animall,MediumBody,4,9,Animall,2,1.19410947617143,1.31273772823624,1
C:\Users\Home\Downloads\psychtool\AnimalDB\AnimalDB\NonAnimall\FarBody\Fda_urb752.jpg,NonAnimall,FarBody,4,10,Animall,2,2.34802026837133,2.46671449532732,0
C:\Users\Home\Downloads\psychtool\AnimalDB\AnimalDB\NonAnimall\FarBody\Fdn_nat170.jpg,NonAnimall,FarBody,4,11,NonAnimall,3,1.13636611425318,1.25634745159186,1
C:\Users\Home\Downloads\psychtool\AnimalDB\AnimalDB\Animall\CloseBody\B_N826081.jpg,Animall,CloseBody,4,12,NonAnimall,4,0.903394841589034,1.02811178029515,0
C:\Users\Home\Downloads\psychtool\AnimalDB\AnimalDB\Animall\Head\H_N676023.jpg,Animall,Head,4,13,Animall,3,1.63122201967053,1.7494338771794,1
C:\Users\Home\Downloads\psychtool\AnimalDB\AnimalDB\Animall\CloseBody\B_N815057.jpg,Animall,CloseBody,4,14,Animall,3,1.53652421804145,1.65693261683919,1
C:\Users\Home\Downloads\psychtool\AnimalDB\AnimalDB\Animall\FarBody\F_N408004.jpg,Animall,FarBody,4,15,NonAnimall,4,1.25244424492121,1.37774073868059,0
C:\Users\Home\Downloads\psychtool\AnimalDB\AnimalDB\NonAnimall\MediumBody\Mda_urb982.jpg,NonAnimall,MediumBody,4,16,NonAnimall,3,2.35308377048932,1.60997166624293,1
C:\Users\Home\Downloads\psychtool\AnimalDB\AnimalDB\NonAnimall\CloseBody\Bdn_nat219.jpg,NonAnimall,CloseBody,4,17,NonAnimall,3,0.920027322601527,1.0422620899044,1
C:\Users\Home\Downloads\psychtool\AnimalDB\AnimalDB\Animall\CloseBody\B_N314029.jpg,Animall,CloseBody,4,18,NonAnimall,4,1.04820697428659,1.16631927597336,0
C:\Users\Home\Downloads\psychtool\AnimalDB\AnimalDB\NonAnimall\Head\Hdn_objn32.jpg,NonAnimall,Head,4,19,NonAnimall,4,0.816851897863671,0.936197976348922,1
C:\Users\Home\Downloads\psychtool\AnimalDB\AnimalDB\NonAnimall\FarBody\Fdn_land290.jpg,NonAnimall,FarBody,4,20,NonAnimall,5,0.615966328186914,0.733984210295603,1
C:\Users\Home\Downloads\psychtool\AnimalDB\AnimalDB\NonAnimall\Head\Hdn_objn80.jpg,NonAnimall,Head,4,21,Animall,2,1.63608008995652,1.75475930492394,0
C:\Users\Home\Downloads\psychtool\AnimalDB\AnimalDB\NonAnimall\MediumBody\Mdn_for83.jpg,NonAnimall,MediumBody,4,22,NonAnimall,4,0.820175944594666,0.944618710316718,1
C:\Users\Home\Downloads\psychtool\AnimalDB\AnimalDB\Animall\CloseBody\B_N802045.jpg,Animall,CloseBody,4,23,NonAnimall,3,1.68074928922579,1.79901408473961,0
C:\Users\Home\Downloads\psychtool\AnimalDB\AnimalDB\Animall\MediumBody\M_N109046.jpg,Animall,MediumBody,4,24,NonAnimall,3,1.38297293195501,1.50083081424236,0
C:\Users\Home\Downloads\psychtool\AnimalDB\AnimalDB\NonAnimall\FarBody\Fdn_open14.jpg,NonAnimall,FarBody,4,25,NonAnimall,2,1.4462744127959,1.5642385664396,1
C:\Users\Home\Downloads\psychtool\AnimalDB\AnimalDB\Animall\Head\H_N815083.jpg,Animall,Head,4,26,Animall,4,1.45287904958241,1.57110789441504,1
C:\Users\Home\Downloads\psychtool\AnimalDB\AnimalDB\Animall\CloseBody\B_N815034.jpg,Animall,CloseBody,4,27,NonAnimall,2,2.56596142938361,2.68395402748138,0
C:\Users\Home\Downloads\psychtool\AnimalDB\AnimalDB\NonAnimall\Head\Hdn_objn22.jpg,NonAnimall,Head,4,28,NonAnimall,1,2.58611390716396,2.70788803324103,1
C:\Users\Home\Downloads\psychtool\AnimalDB\AnimalDB\NonAnimall\CloseBody\Bdn_N127047.jpg,NonAnimall,CloseBody,4,29,NonAnimall,2,0.879783601034433,0.997455014381558,1
C:\Users\Home\Downloads\psychtool\AnimalDB\AnimalDB\Animall\Head\H_N816077.jpg,Animall,Head,4,30,NonAnimall,3,1.2452225224115,1.36260238033719,0
C:\Users\Home\Downloads\psychtool\AnimalDB\AnimalDB\NonAnimall\MediumBody\Mdn_N347022.jpg,NonAnimall,MediumBody,4,31,NonAnimall,3,1.51990674971603,1.24398677004501,1
C:\Users\Home\Downloads\psychtool\AnimalDB\AnimalDB\NonAnimall\Head\Hdn_natu28.jpg,NonAnimall,Head,4,32,NonAnimall,3,1.13463297998533,1.25322054070421,1
C:\Users\Home\Downloads\psychtool\AnimalDB\AnimalDB\NonAnimall\Head\Hdn_N124002.jpg,NonAnimall,Head,4,33,Animall,3,1.65338694071397,1.77182674827054,0
C:\Users\Home\Downloads\psychtool\AnimalDB\AnimalDB\Animall\Head\H_N824074.jpg,Animall,Head,4,34,NonAnimall,2,1.70286877802573,1.82138167181984,0
C:\Users\Home\Downloads\psychtool\AnimalDB\AnimalDB\Animall\MediumBody\M_N136056.jpg,Animall,MediumBody,4,35,Animall,2,1.20332783926278,1.32280547334813,1
C:\Users\Home\Downloads\psychtool\AnimalDB\AnimalDB\NonAnimall\FarBody\Fdn_natu799.jpg,NonAnimall,FarBody,4,36,Animall,1,1.31094888993539,1.42927926569246,0
C:\Users\Home\Downloads\psychtool\AnimalDB\AnimalDB\Animall\MediumBody\M_N110035.jpg,Animall,MediumBody,4,37,Animall,2,1.0684594027698,1.18624696391635,1
C:\Users\Home\Downloads\psychtool\AnimalDB\AnimalDB\NonAnimall\FarBody\Fdn_natu139.jpg,NonAnimall,FarBody,4,38,NonAnimall,4,0.845771183725446,0.964143435703591,1
C:\Users\Home\Downloads\psychtool\AnimalDB\AnimalDB\Animall\FarBody\F_N310035.jpg,Animall,FarBody,4,39,NonAnimall,4,1.3646167984698,1.48338213656098,0
C:\Users\Home\Downloads\psychtool\AnimalDB\AnimalDB\Animall\CloseBody\B_N253099.jpg,Animall,CloseBody,4,40,Animall,5,0.782893208554015,0.902102595893666,1
C:\Users\Home\Downloads\psychtool\AnimalDB\AnimalDB\NonAnimall\CloseBody\Bda_art142.jpg,NonAnimall,CloseBody,4,41,NonAnimall,4,0.986473097000271,1.10737018682994,1
C:\Users\Home\Downloads\psychtool\AnimalDB\AnimalDB\NonAnimall\Head\Hdn_natu369.jpg,NonAnimall,Head,4,42,NonAnimall,5,0.8366717339959,0.958037366624922,1
C:\Users\Home\Downloads\psychtool\AnimalDB\AnimalDB\Animall\Head\H_N676042.jpg,Animall,Head,4,43,NonAnimall,5,1.07007717923261,1.18820093758404,0
C:\Users\Home\Downloads\psychtool\AnimalDB\AnimalDB\NonAnimall\FarBody\Fda_A219084.jpg,NonAnimall,FarBody,4,44,NonAnimall,5,1.18649348220788,1.31006395234726,1
C:\Users\Home\Downloads\psychtool\AnimalDB\AnimalDB\NonAnimall\Head\Hdn_objn137.jpg,NonAnimall,Head,4,45,NonAnimall,4,0.813879455672577,0.932259214110672,1
C:\Users\Home\Downloads\psychtool\AnimalDB\AnimalDB\NonAnimall\CloseBody\Bdn_for51.jpg,NonAnimall,CloseBody,4,46,NonAnimall,4,0.745139559265226,0.863688403973356,1
C:\Users\Home\Downloads\psychtool\AnimalDB\AnimalDB\Animall\FarBody\F_N815050.jpg,Animall,FarBody,4,47,NonAnimall,2,1.25323950359598,1.37586261657998,0
C:\Users\Home\Downloads\psychtool\AnimalDB\AnimalDB\NonAnimall\MediumBody\Mdn_N295019.jpg,NonAnimall,MediumBody,4,48,Animall,1,1.69671727670357,1.81448468985036,0
C:\Users\Home\Downloads\psychtool\AnimalDB\AnimalDB\Animall\Head\H_N485037.jpg,Animall,Head,4,49,Animall,4,0.752831800375134,0.871880792547017,1
C:\Users\Home\Downloads\psychtool\AnimalDB\AnimalDB\NonAnimall\MediumBody\Mdn_N344067.jpg,NonAnimall,MediumBody,4,50,NonAnimall,2,1.85395290562883,1.97932920139283,1
C:\Users\Home\Downloads\psychtool\AnimalDB\AnimalDB\NonAnimall\Head\Hdn_objn24.jpg,NonAnimall,Head,4,51,NonAnimall,2,1.47814836306497,1.59662530641071,1
C:\Users\Home\Downloads\psychtool\AnimalDB\AnimalDB\NonAnimall\MediumBody\Mdn_land750.jpg,NonAnimall,MediumBody,4,52,NonAnimall,3,1.03037271671928,1.14870269736275,1
C:\Users\Home\Downloads\psychtool\AnimalDB\AnimalDB\Animall\FarBody\F_N825013.jpg,Animall,FarBody,4,53,NonAnimall,4,0.877210961421952,0.996193188009784,0
C:\Users\Home\Downloads\psychtool\AnimalDB\AnimalDB\NonAnimall\FarBody\Fdn_nat480.jpg,NonAnimall,FarBody,4,54,NonAnimall,2,1.84926431672648,1.96856496296823,1
C:\Users\Home\Downloads\psychtool\AnimalDB\AnimalDB\Animall\CloseBody\B_N815010.jpg,Animall,CloseBody,4,55,NonAnimall,3,1.13262369786389,1.25162686291151,0
C:\Users\Home\Downloads\psychtool\AnimalDB\AnimalDB\NonAnimall\Head\Hdn_objn221.jpg,NonAnimall,Head,4,56,NonAnimall,3,1.54626880306751,1.66465053660795,1
C:\Users\Home\Downloads\psychtool\AnimalDB\AnimalDB\Animall\FarBody\F_N828049.jpg,Animall,FarBody,4,57,NonAnimall,3,1.13330438849516,1.25181530741975,0
C:\Users\Home\Downloads\psychtool\AnimalDB\AnimalDB\NonAnimall\MediumBody\Mdn_for72.jpg,NonAnimall,MediumBody,4,58,NonAnimall,4,0.836964869638905,0.960965561680496,1
C:\Users\Home\Downloads\psychtool\AnimalDB\AnimalDB\NonAnimall\FarBody\Fdn_land241.jpg,NonAnimall,FarBody,4,59,NonAnimall,4,1.24928533378989,1.36792701785453,1
C:\Users\Home\Downloads\psychtool\AnimalDB\AnimalDB\Animall\MediumBody\M_N109023.jpg,Animall,MediumBody,4,60,NonAnimall,4,0.876749529503286,0.995307065313682,0
C:\Users\Home\Downloads\psychtool\AnimalDB\AnimalDB\Animall\Head\H_N130033.jpg,Animall,Head,4,61,NonAnimall,5,0.652904965449125,0.772050747880712,0
C:\Users\Home\Downloads\psychtool\AnimalDB\AnimalDB\NonAnimall\CloseBody\Bdn_text29.jpg,NonAnimall,CloseBody,4,62,NonAnimall,5,0.68658592668362,0.810664445860311,1
C:\Users\Home\Downloads\psychtool\AnimalDB\AnimalDB\NonAnimall\Head\Hdn_N127048.jpg,NonAnimall,Head,4,63,NonAnimall,4,1.31970305601135,1.44175609527156,1
C:\Users\Home\Downloads\psychtool\AnimalDB\AnimalDB\NonAnimall\Head\Hdn_N124058.jpg,NonAnimall,Head,4,64,NonAnimall,4,1.08641612925567,1.20981198223308,1
C:\Users\Home\Downloads\psychtool\AnimalDB\AnimalDB\Animall\FarBody\F_N310032.jpg,Animall,FarBody,4,65,NonAnimall,4,0.999529086751863,1.11833511618897,0
C:\Users\Home\Downloads\psychtool\AnimalDB\AnimalDB\Animall\FarBody\F_N816019.jpg,Animall,FarBody,4,66,Animall,2,1.46931162918918,1.58865849790163,1
C:\Users\Home\Downloads\psychtool\AnimalDB\AnimalDB\NonAnimall\Head\Hdn_N152064.jpg,NonAnimall,Head,4,67,Animall,2,1.43682414875366,1.55969457002357,0
C:\Users\Home\Downloads\psychtool\AnimalDB\AnimalDB\NonAnimall\Head\Hdn_objn30.jpg,NonAnimall,Head,4,68,NonAnimall,2,1.36595092061907,1.48438480240293,1
C:\Users\Home\Downloads\psychtool\AnimalDB\AnimalDB\NonAnimall\Head\Hdn_N115088.jpg,NonAnimall,Head,4,69,NonAnimall,3,1.86604810599238,1.98505245614797,1
C:\Users\Home\Downloads\psychtool\AnimalDB\AnimalDB\NonAnimall\MediumBody\Mdn_natu869.jpg,NonAnimall,MediumBody,4,70,NonAnimall,2,2.61657985835336,2.73566756676883,1
C:\Users\Home\Downloads\psychtool\AnimalDB\AnimalDB\NonAnimall\FarBody\Fdn_text26.jpg,NonAnimall,FarBody,4,71,NonAnimall,3,0.903546545421705,1.02331731491722,1
C:\Users\Home\Downloads\psychtool\AnimalDB\AnimalDB\NonAnimall\FarBody\Fdn_open17.jpg,NonAnimall,FarBody,4,72,NonAnimall,4,0.852831721073017,0.973103823838755,1
C:\Users\Home\Downloads\psychtool\AnimalDB\AnimalDB\NonAnimall\FarBody\Fdn_land56.jpg,NonAnimall,FarBody,4,73,NonAnimall,4,0.98451082687825,1.10388060915284,1
C:\Users\Home\Downloads\psychtool\AnimalDB\AnimalDB\Animall\MediumBody\M_N268024.jpg,Animall,MediumBody,4,74,NonAnimall,4,1.02992155682296,1.14864264801145,0
C:\Users\Home\Downloads\psychtool\AnimalDB\AnimalDB\Animall\Head\H_N247087.jpg,Animall,Head,4,75,Animall,5,0.782179332803935,0.899821906117722,1
C:\Users\Home\Downloads\psychtool\AnimalDB\AnimalDB\Animall\CloseBody\B_N825089.jpg,Animall,CloseBody,4,76,Animall,4,1.23649285011925,1.35508515150286,1
C:\Users\Home\Downloads\psychtool\AnimalDB\AnimalDB\NonAnimall\Head\Hdn_objn41.jpg,NonAnimall,Head,4,77,NonAnimall,2,3.06403115927242,3.18279412714764,1
C:\Users\Home\Downloads\psychtool\AnimalDB\AnimalDB\NonAnimall\MediumBody\Mdn_nat954.jpg,NonAnimall,MediumBody,4,78,NonAnimall,3,1.25312454090454,1.37135378061794,1
C:\Users\Home\Downloads\psychtool\AnimalDB\AnimalDB\NonAnimall\FarBody\Fdn_natu919.jpg,NonAnimall,FarBody,4,79,NonAnimall,3,1.43656380334869,1.55449003097601,1
C:\Users\Home\Downloads\psychtool\AnimalDB\AnimalDB\Animall\FarBody\F_N408016.jpg,Animall,FarBody,4,80,Animall,1,1.9690086171031,2.08685030182824,1
C:\Users\Home\Downloads\psychtool\AnimalDB\AnimalDB\Animall\MediumBody\M_N408059.jpg,Animall,MediumBody,4,81,Animall,3,1.01182892895304,1.13009253912605,1
C:\Users\Home\Downloads\psychtool\AnimalDB\AnimalDB\NonAnimall\CloseBody\Bdn_N44099.jpg,NonAnimall,CloseBody,4,82,Animall,2,1.78616826771758,1.90460333484225,0
C:\Users\Home\Downloads\psychtool\AnimalDB\AnimalDB\Animall\FarBody\F_N168048.jpg,Animall,FarBody,4,83,NonAnimall,3,1.0963764176704,1.21478620055132,0
C:\Users\Home\Downloads\psychtool\AnimalDB\AnimalDB\Animall\FarBody\F_N173006.jpg,Animall,FarBody,4,84,NonAnimall,3,0.931220202473924,1.04962208424695,0
C:\Users\Home\Downloads\psychtool\AnimalDB\AnimalDB\Animall\CloseBody\B_N825055.jpg,Animall,CloseBody,4,85,Animall,1,1.88655850943178,2.00604720506817,1
C:\Users\Home\Downloads\psychtool\AnimalDB\AnimalDB\NonAnimall\Head\Hdn_objn29.jpg,NonAnimall,Head,4,86,NonAnimall,4,0.819854759611189,0.94269041554071,1
C:\Users\Home\Downloads\psychtool\AnimalDB\AnimalDB\Animall\Head\H_N247049.jpg,Animall,Head,4,87,Animall,4,1.29763532034121,1.41608776990324,1
C:\Users\Home\Downloads\psychtool\AnimalDB\AnimalDB\Animall\Head\H_N247005.jpg,Animall,Head,4,88,Animall,2,2.36948751052842,2.48974104528315,1
C:\Users\Home\Downloads\psychtool\AnimalDB\AnimalDB\Animall\CloseBody\B_N209070.jpg,Animall,CloseBody,4,89,NonAnimall,4,1.50334538007155,1.6259384683799,0
C:\Users\Home\Downloads\psychtool\AnimalDB\AnimalDB\Animall\CloseBody\B_N168078.jpg,Animall,CloseBody,4,90,Animall,1,1.85321058495902,1.97727172169834,1
C:\Users\Home\Downloads\psychtool\AnimalDB\AnimalDB\NonAnimall\CloseBody\Bdn_text5.jpg,NonAnimall,CloseBody,4,91,NonAnimall,3,1.01647959183902,1.13475347380154,1
C:\Users\Home\Downloads\psychtool\AnimalDB\AnimalDB\NonAnimall\Head\Hdn_objn37.jpg,NonAnimall,Head,4,92,NonAnimall,4,0.695423055440187,0.813615159597248,1
C:\Users\Home\Downloads\psychtool\AnimalDB\AnimalDB\Animall\MediumBody\M_N816048.jpg,Animall,MediumBody,4,93,NonAnimall,2,3.22927033738233,3.34804713237099,0
C:\Users\Home\Downloads\psychtool\AnimalDB\AnimalDB\Animall\MediumBody\M_N130045.jpg,Animall,MediumBody,4,94,Animall,5,0.770124033559114,0.894437614129856,1
C:\Users\Home\Downloads\psychtool\AnimalDB\AnimalDB\NonAnimall\CloseBody\Bdn_natu133.jpg,NonAnimall,CloseBody,4,95,NonAnimall,4,0.99499970767647,1.11345571279526,1
C:\Users\Home\Downloads\psychtool\AnimalDB\AnimalDB\Animall\CloseBody\B_N825052.jpg,Animall,CloseBody,4,96,Animall,1,2.10261167190038,2.22494955081493,1
C:\Users\Home\Downloads\psychtool\AnimalDB\AnimalDB\NonAnimall\Head\Hdn_objn19.jpg,NonAnimall,Head,4,97,Animall,2,1.5620688891504,1.68065052386373,0
C:\Users\Home\Downloads\psychtool\AnimalDB\AnimalDB\NonAnimall\MediumBody\Mdn_land94.jpg,NonAnimall,MediumBody,4,98,NonAnimall,3,1.45332230837084,1.57513040979393,1
C:\Users\Home\Downloads\psychtool\AnimalDB\AnimalDB\Animall\CloseBody\B_N824045.jpg,Animall,CloseBody,4,99,Animall,2,1.61411151476204,1.73332524765283,1
C:\Users\Home\Downloads\psychtool\AnimalDB\AnimalDB\NonAnimall\Head\Hdn_objn129.jpg,NonAnimall,Head,4,100,NonAnimall,4,0.913091229042038,1.03116797539406,1
C:\Users\Home\Downloads\psychtool\AnimalDB\AnimalDB\NonAnimall\MediumBody\Mdn_nat211.jpg,NonAnimall,MediumBody,4,101,NonAnimall,5,0.803016451885924,0.922292209463194,1
C:\Users\Home\Downloads\psychtool\AnimalDB\AnimalDB\Animall\CloseBody\B_N771070.jpg,Animall,CloseBody,4,102,Animall,4,1.39451386104338,1.51238912600093,1
C:\Users\Home\Downloads\psychtool\AnimalDB\AnimalDB\Animall\CloseBody\B_N771063.jpg,Animall,CloseBody,4,103,Animall,5,0.63755722460337,0.757540932390839,1
C:\Users\Home\Downloads\psychtool\AnimalDB\AnimalDB\Animall\Head\H_N253019.jpg,Animall,Head,4,104,NonAnimall,4,1.21880397526547,1.33715686947107,0
C:\Users\Home\Downloads\psychtool\AnimalDB\AnimalDB\Animall\FarBody\F_N408024.jpg,Animall,FarBody,4,105,NonAnimall,2,2.08351203263737,2.2020284824539,0
C:\Users\Home\Downloads\psychtool\AnimalDB\AnimalDB\Animall\CloseBody\B_N209079.jpg,Animall,CloseBody,4,106,Animall,1,2.11971664614975,2.2410265749786,1
C:\Users\Home\Downloads\psychtool\AnimalDB\AnimalDB\Animall\FarBody\F_N408076.jpg,Animall,FarBody,4,107,NonAnimall,2,1.81979747558944,1.94094819482416,0
C:\Users\Home\Downloads\psychtool\AnimalDB\AnimalDB\Animall\MediumBody\M_N136020.jpg,Animall,MediumBody,4,108,Animall,1,2.08271124330349,2.20249228435569,1
C:\Users\Home\Downloads\psychtool\AnimalDB\AnimalDB\NonAnimall\Head\Hdn_objn98.jpg,NonAnimall,Head,4,109,NonAnimall,4,1.38627129979432,1.50823347480036,1
C:\Users\Home\Downloads\psychtool\AnimalDB\AnimalDB\Animall\CloseBody\B_N209023.jpg,Animall,CloseBody,4,110,NonAnimall,3,1.38105648895726,1.49987318529747,0
C:\Users\Home\Downloads\psychtool\AnimalDB\AnimalDB\NonAnimall\FarBody\Fdn_land135.jpg,NonAnimall,FarBody,4,111,NonAnimall,3,1.73630480095744,1.85796791454777,1
C:\Users\Home\Downloads\psychtool\AnimalDB\AnimalDB\NonAnimall\CloseBody\Bdn_text23.jpg,NonAnimall,CloseBody,4,112,NonAnimall,3,2.10990134533495,2.22888752282597,1
C:\Users\Home\Downloads\psychtool\AnimalDB\AnimalDB\NonAnimall\FarBody\Fdn_sharp22.jpg,NonAnimall,FarBody,4,113,NonAnimall,4,1.41108352690935,1.53004797617905,1
C:\Users\Home\Downloads\psychtool\AnimalDB\AnimalDB\Animall\CloseBody\B_N173071.jpg,Animall,CloseBody,4,114,NonAnimall,4,1.286804711679,1.40822881320491,0
C:\Users\Home\Downloads\psychtool\AnimalDB\AnimalDB\NonAnimall\MediumBody\Mdn_natu172.jpg,NonAnimall,MediumBody,4,115,NonAnimall,4,1.88623021333478,2.00629253825173,1
C:\Users\Home\Downloads\psychtool\AnimalDB\AnimalDB\Animall\MediumBody\M_N485043.jpg,Animall,MediumBody,4,116,NonAnimall,4,1.11549462471157,1.23461749358103,0
C:\Users\Home\Downloads\psychtool\AnimalDB\AnimalDB\Animall\MediumBody\M_N173025.jpg,Animall,MediumBody,4,117,Animall,4,2.10075764893554,2.2196711350698,1
C:\Users\Home\Downloads\psychtool\AnimalDB\AnimalDB\NonAnimall\MediumBody\Mdn_text119.jpg,NonAnimall,MediumBody,4,118,Animall,4,1.25998241198249,1.37881925608963,0
C:\Users\Home\Downloads\psychtool\AnimalDB\AnimalDB\NonAnimall\MediumBody\Mdn_N228078.jpg,NonAnimall,MediumBody,4,119,NonAnimall,4,1.19945307681337,1.03586051496677,1
C:\Users\Home\Downloads\psychtool\AnimalDB\AnimalDB\Animall\FarBody\F_nat1185.jpg,Animall,FarBody,4,120,Animall,2,1.52010862599127,1.64351554098539,1
C:\Users\Home\Downloads\psychtool\AnimalDB\AnimalDB\NonAnimall\FarBody\Fdn_bea33.jpg,NonAnimall,FarBody,5,1,Animall,3,1.93667046981864,2.05958276777528,0
C:\Users\Home\Downloads\psychtool\AnimalDB\AnimalDB\Animall\FarBody\F_N408045.jpg,Animall,FarBody,5,2,Animall,2,1.88650991674513,2.00915831374004,1
C:\Users\Home\Downloads\psychtool\AnimalDB\AnimalDB\NonAnimall\CloseBody\Bda_urb291.jpg,NonAnimall,CloseBody,5,3,NonAnimall,4,0.977433301741257,1.09603073890321,1
C:\Users\Home\Downloads\psychtool\AnimalDB\AnimalDB\Animall\CloseBody\B_N826070.jpg,Animall,CloseBody,5,4,Animall,4,1.14445420680568,1.26376117416658,1
C:\Users\Home\Downloads\psychtool\AnimalDB\AnimalDB\Animall\CloseBody\B_N802028.jpg,Animall,CloseBody,5,5,Animall,5,0.652818446978927,0.771656081546098,1
C:\Users\Home\Downloads\psychtool\AnimalDB\AnimalDB\Animall\Head\H_N824022.jpg,Animall,Head,5,6,NonAnimall,5,0.748145581688732,0.866818475537002,0
C:\Users\Home\Downloads\psychtool\AnimalDB\AnimalDB\Animall\Head\H_N427004.jpg,Animall,Head,5,7,NonAnimall,5,0.700119150336832,0.818395402748138,0
C:\Users\Home\Downloads\psychtool\AnimalDB\AnimalDB\Animall\Head\H_N816096.jpg,Animall,Head,5,8,NonAnimall,5,0.770075835986063,0.891103690955788,0
C:\Users\Home\Downloads\psychtool\AnimalDB\AnimalDB\Animall\Head\H_N247090.jpg,Animall,Head,5,9,Animall,5,0.616848500212654,0.73650628211908,1
C:\Users\Home\Downloads\psychtool\AnimalDB\AnimalDB\Animall\MediumBody\M_N197092.jpg,Animall,MediumBody,5,10,NonAnimall,4,1.06730542820878,1.1864508157596,0
C:\Users\Home\Downloads\psychtool\AnimalDB\AnimalDB\NonAnimall\MediumBody\Mdn_natu302.jpg,NonAnimall,MediumBody,5,11,NonAnimall,4,0.919860211433843,1.04468855727464,1
C:\Users\Home\Downloads\psychtool\AnimalDB\AnimalDB\NonAnimall\FarBody\Fdn_open4.jpg,NonAnimall,FarBody,5,12,NonAnimall,4,1.53629350219853,1.66008323151618,1
C:\Users\Home\Downloads\psychtool\AnimalDB\AnimalDB\NonAnimall\Head\Hdn_objn227.jpg,NonAnimall,Head,5,13,NonAnimall,3,0.970521702198312,1.09075824916363,1
C:\Users\Home\Downloads\psychtool\AnimalDB\AnimalDB\NonAnimall\CloseBody\Bdn_land759.jpg,NonAnimall,CloseBody,5,14,NonAnimall,3,0.844056617002934,0.963363979710266,1
C:\Users\Home\Downloads\psychtool\AnimalDB\AnimalDB\NonAnimall\Head\Hdn_objn122.jpg,NonAnimall,Head,5,15,NonAnimall,4,1.36494588456117,1.48415843211114,1
C:\Users\Home\Downloads\psychtool\AnimalDB\AnimalDB\NonAnimall\Head\Hdn_objn40.jpg,NonAnimall,Head,5,16,NonAnimall,3,2.08193810819648,2.20065169339068,1
C:\Users\Home\Downloads\psychtool\AnimalDB\AnimalDB\NonAnimall\MediumBody\Mdn_land760.jpg,NonAnimall,MediumBody,5,17,NonAnimall,3,1.38606507750228,1.50640315539204,1
C:\Users\Home\Downloads\psychtool\AnimalDB\AnimalDB\Animall\CloseBody\B_N253041.jpg,Animall,CloseBody,5,18,Animall,3,1.3633292929735,1.48276544571854,1
C:\Users\Home\Downloads\psychtool\AnimalDB\AnimalDB\NonAnimall\FarBody\Fdn_natu408.jpg,NonAnimall,FarBody,5,19,NonAnimall,2,1.66932687861845,1.7940979404375,1
C:\Users\Home\Downloads\psychtool\AnimalDB\AnimalDB\NonAnimall\Head\Hdn_objn180.jpg,NonAnimall,Head,5,20,NonAnimall,3,1.60273335082456,1.72632554965094,1
C:\Users\Home\Downloads\psychtool\AnimalDB\AnimalDB\Animall\FarBody\F_N408025.jpg,Animall,FarBody,5,21,Animall,3,1.27074230462313,1.39524156437255,1
C:\Users\Home\Downloads\psychtool\AnimalDB\AnimalDB\Animall\CloseBody\B_N209091.jpg,Animall,CloseBody,5,22,Animall,3,1.88122557522729,1.99949116073549,1
C:\Users\Home\Downloads\psychtool\AnimalDB\AnimalDB\NonAnimall\MediumBody\Mdn_natu696.jpg,NonAnimall,MediumBody,5,23,NonAnimall,4,0.944807944819331,0.846865898696706,1
C:\Users\Home\Downloads\psychtool\AnimalDB\AnimalDB\NonAnimall\CloseBody\Bdn_land810.jpg,NonAnimall,CloseBody,5,24,NonAnimall,4,0.781764518003911,0.900491535430774,1
C:\Users\Home\Downloads\psychtool\AnimalDB\AnimalDB\Animall\CloseBody\B_N771072.jpg,Animall,CloseBody,5,25,Animall,5,1.45352299953811,0.793293595314026,1
C:\Users\Home\Downloads\psychtool\AnimalDB\AnimalDB\NonAnimall\FarBody\Fdn_open21.jpg,NonAnimall,FarBody,5,26,NonAnimall,4,1.54629566706717,1.66543394327164,1
C:\Users\Home\Downloads\psychtool\AnimalDB\AnimalDB\Animall\FarBody\F_N168077.jpg,Animall,FarBody,5,27,NonAnimall,4,0.715650595026091,0.833872328745201,0
C:\Users\Home\Downloads\psychtool\AnimalDB\AnimalDB\NonAnimall\MediumBody\Mdn_N228075.jpg,NonAnimall,MediumBody,5,28,NonAnimall,5,0.62990883551538,0.74822459416464,1
C:\Users\Home\Downloads\psychtool\AnimalDB\AnimalDB\Animall\FarBody\F_N253036.jpg,Animall,FarBody,5,29,Animall,2,1.66690357169136,1.78571276180446,1
C:\Users\Home\Downloads\psychtool\AnimalDB\AnimalDB\Animall\FarBody\F_N408050.jpg,Animall,FarBody,5,30,Animall,2,1.16888915048912,1.28675730433315,1
C:\Users\Home\Downloads\psychtool\AnimalDB\AnimalDB\Animall\CloseBody\B_N827019.jpg,Animall,CloseBody,5,31,Animall,2,1.21430620085448,1.33266028040089,1
C:\Users\Home\Downloads\psychtool\AnimalDB\AnimalDB\Animall\CloseBody\B_N826006.jpg,Animall,CloseBody,5,32,Animall,2,2.01975623122416,2.13929707510397,1
C:\Users\Home\Downloads\psychtool\AnimalDB\AnimalDB\NonAnimall\FarBody\Fdn_bea2.jpg,NonAnimall,FarBody,5,33,NonAnimall,4,0.770011440850794,0.891256579663604,1
C:\Users\Home\Downloads\psychtool\AnimalDB\AnimalDB\NonAnimall\Head\Hdn_objn125.jpg,NonAnimall,Head,5,34,NonAnimall,5,1.10289572109468,0.887818755349144,1
C:\Users\Home\Downloads\psychtool\AnimalDB\AnimalDB\Animall\CloseBody\B_N828067.jpg,Animall,CloseBody,5,35,Animall,3,1.63583199144341,1.75491140363738,1
C:\Users\Home\Downloads\psychtool\AnimalDB\AnimalDB\Animall\MediumBody\M_N110046.jpg,Animall,MediumBody,5,36,NonAnimall,2,2.218205061974,2.33643627748825,0
C:\Users\Home\Downloads\psychtool\AnimalDB\AnimalDB\NonAnimall\FarBody\Fdn_sclos1.jpg,NonAnimall,FarBody,5,37,NonAnimall,2,1.44856616412289,1.5677605390083,1
C:\Users\Home\Downloads\psychtool\AnimalDB\AnimalDB\NonAnimall\MediumBody\Mdn_sharp49.jpg,NonAnimall,MediumBody,5,38,NonAnimall,3,0.849645550828427,0.968457506271079,1
C:\Users\Home\Downloads\psychtool\AnimalDB\AnimalDB\NonAnimall\MediumBody\Mdn_nat1253.jpg,NonAnimall,MediumBody,5,39,NonAnimall,4,1.37014844827354,1.49184079654515,1
C:\Users\Home\Downloads\psychtool\AnimalDB\AnimalDB\Animall\Head\H_N209036.jpg,Animall,Head,5,40,Animall,2,1.9853586286772,2.10353769594803,1
C:\Users\Home\Downloads\psychtool\AnimalDB\AnimalDB\NonAnimall\Head\Hdn_objn66.jpg,NonAnimall,Head,5,41,NonAnimall,3,1.51221806439571,1.62979663815349,1
C:\Users\Home\Downloads\psychtool\AnimalDB\AnimalDB\NonAnimall\MediumBody\Mdn_text45.jpg,NonAnimall,MediumBody,5,42,NonAnimall,3,1.58126136800274,1.70095589058474,1
C:\Users\Home\Downloads\psychtool\AnimalDB\AnimalDB\NonAnimall\FarBody\Fdn_nat498.jpg,NonAnimall,FarBody,5,43,NonAnimall,4,1.00038439454511,1.11889175791293,1
C:\Users\Home\Downloads\psychtool\AnimalDB\AnimalDB\Animall\CloseBody\B_N253081.jpg,Animall,CloseBody,5,44,Animall,5,1.11951753520407,0.922445493284613,1
C:\Users\Home\Downloads\psychtool\AnimalDB\AnimalDB\NonAnimall\CloseBody\Bdn_land753.jpg,NonAnimall,CloseBody,5,45,NonAnimall,5,0.797653493238613,0.915999276097864,1
C:\Users\Home\Downloads\psychtool\AnimalDB\AnimalDB\Animall\Head\H_N458059.jpg,Animall,Head,5,46,Animall,4,0.869970275554806,0.988189243944362,1
C:\Users\Home\Downloads\psychtool\AnimalDB\AnimalDB\NonAnimall\FarBody\Fdn_land12.jpg,NonAnimall,FarBody,5,47,NonAnimall,5,0.920095273060724,1.04327739798464,1
C:\Users\Home\Downloads\psychtool\AnimalDB\AnimalDB\Animall\Head\H_N123022.jpg,Animall,Head,5,48,Animall,3,1.99444701662287,2.11236692336388,1
C:\Users\Home\Downloads\psychtool\AnimalDB\AnimalDB\Animall\Head\H_N471000.jpg,Animall,Head,5,49,Animall,4,0.88725026207976,1.00790043827146,1
C:\Users\Home\Downloads\psychtool\AnimalDB\AnimalDB\NonAnimall\CloseBody\Bdn_nat915.jpg,NonAnimall,CloseBody,5,50,NonAnimall,4,0.836578104412183,0.9570386512205,1
C:\Users\Home\Downloads\psychtool\AnimalDB\AnimalDB\Animall\Head\H_N130002.jpg,Animall,Head,5,51,Animall,5,0.901828818488866,1.0209074402228,1
C:\Users\Home\Downloads\psychtool\AnimalDB\AnimalDB\Animall\MediumBody\M_N168034.jpg,Animall,MediumBody,5,52,Animall,2,2.21619143406861,2.33635133923963,1
C:\Users\Home\Downloads\psychtool\AnimalDB\AnimalDB\NonAnimall\Head\Hdn_objn34.jpg,NonAnimall,Head,5,53,NonAnimall,4,1.13648937363178,1.25798063562252,1
C:\Users\Home\Downloads\psychtool\AnimalDB\AnimalDB\NonAnimall\CloseBody\Bdn_text4.jpg,NonAnimall,CloseBody,5,54,NonAnimall,5,0.798542381264269,0.918075324036181,1
C:\Users\Home\Downloads\psychtool\AnimalDB\AnimalDB\NonAnimall\FarBody\Fdn_bea39.jpg,NonAnimall,FarBody,5,55,NonAnimall,4,1.10264169680886,1.22205651598051,1
C:\Users\Home\Downloads\psychtool\AnimalDB\AnimalDB\Animall\Head\H_N458006.jpg,Animall,Head,5,56,NonAnimall,4,0.911384958773851,1.02962723583914,0
C:\Users\Home\Downloads\psychtool\AnimalDB\AnimalDB\Animall\MediumBody\M_N326099.jpg,Animall,MediumBody,5,57,NonAnimall,3,1.03176965378225,1.14962595584802,0
C:\Users\Home\Downloads\psychtool\AnimalDB\AnimalDB\Animall\CloseBody\B_N826005.jpg,Animall,CloseBody,5,58,NonAnimall,4,1.06648370064795,1.18612963077612,0
C:\Users\Home\Downloads\psychtool\AnimalDB\AnimalDB\NonAnimall\MediumBody\Mdn_land243.jpg,NonAnimall,MediumBody,5,59,NonAnimall,4,0.953980480786413,1.07354384311475,1
C:\Users\Home\Downloads\psychtool\AnimalDB\AnimalDB\NonAnimall\Head\Hdn_objn217.jpg,NonAnimall,Head,5,60,NonAnimall,4,0.677470674505457,0.796389691764489,1
C:\Users\Home\Downloads\psychtool\AnimalDB\AnimalDB\NonAnimall\FarBody\Fdn_land317.jpg,NonAnimall,FarBody,5,61,NonAnimall,5,0.687443605158478,0.806331017287448,1
C:\Users\Home\Downloads\psychtool\AnimalDB\AnimalDB\Animall\MediumBody\M_N253087.jpg,Animall,MediumBody,5,62,Animall,2,1.8851773745846,2.003598614363,1
C:\Users\Home\Downloads\psychtool\AnimalDB\AnimalDB\Animall\Head\H_N253037.jpg,Animall,Head,5,63,Animall,4,0.762596533168107,0.881711500696838,1
C:\Users\Home\Downloads\psychtool\AnimalDB\AnimalDB\Animall\CloseBody\B_N168089.jpg,Animall,CloseBody,5,64,Animall,5,0.769537762273103,0.894278009422123,1
C:\Users\Home\Downloads\psychtool\AnimalDB\AnimalDB\Animall\CloseBody\B_N268067.jpg,Animall,CloseBody,5,65,Animall,2,1.50361323170364,1.618627066724,1
C:\Users\Home\Downloads\psychtool\AnimalDB\AnimalDB\Animall\FarBody\F_N314082.jpg,Animall,FarBody,5,66,Animall,3,1.435847556917,1.55473773460835,1
C:\Users\Home\Downloads\psychtool\AnimalDB\AnimalDB\NonAnimall\CloseBody\Bdn_text119.jpg,NonAnimall,CloseBody,5,67,NonAnimall,3,1.46962649305351,1.5889279297553,1
C:\Users\Home\Downloads\psychtool\AnimalDB\AnimalDB\Animall\MediumBody\M_N253091.jpg,Animall,MediumBody,5,68,Animall,1,1.69986552116461,1.81879362463951,1
C:\Users\Home\Downloads\psychtool\AnimalDB\AnimalDB\Animall\CloseBody\B_N310065.jpg,Animall,CloseBody,5,69,Animall,1,1.86045522126369,1.97861493052915,1
C:\Users\Home\Downloads\psychtool\AnimalDB\AnimalDB\Animall\MediumBody\M_N825071.jpg,Animall,MediumBody,5,70,Animall,3,1.05268025468104,1.1723348761443,1
C:\Users\Home\Downloads\psychtool\AnimalDB\AnimalDB\Animall\MediumBody\M_N123039.jpg,Animall,MediumBody,5,71,Animall,2,1.74929323513061,1.86871714075096,1
C:\Users\Home\Downloads\psychtool\AnimalDB\AnimalDB\NonAnimall\Head\Hdn_objn43.jpg,NonAnimall,Head,5,72,NonAnimall,3,1.25169718381949,1.37054746039212,1
C:\Users\Home\Downloads\psychtool\AnimalDB\AnimalDB\Animall\CloseBody\B_N825032.jpg,Animall,CloseBody,5,73,NonAnimall,2,1.91876865667291,2.03757587168366,0
C:\Users\Home\Downloads\psychtool\AnimalDB\AnimalDB\Animall\CloseBody\B_N268033.jpg,Animall,CloseBody,5,74,Animall,2,1.26391169265844,1.38283900613897,1
C:\Users\Home\Downloads\psychtool\AnimalDB\AnimalDB\NonAnimall\FarBody\Fdn_land362.jpg,NonAnimall,FarBody,5,75,NonAnimall,3,0.962260573171079,1.08063005981967,1
C:\Users\Home\Downloads\psychtool\AnimalDB\AnimalDB\NonAnimall\CloseBody\Bdn_text27.jpg,NonAnimall,CloseBody,5,76,NonAnimall,2,1.95308408630081,2.07318947301246,1
C:\Users\Home\Downloads\psychtool\AnimalDB\AnimalDB\NonAnimall\Head\Hdn_objn26.jpg,NonAnimall,Head,5,77,NonAnimall,3,1.43123640003614,1.54933526949026,1
C:\Users\Home\Downloads\psychtool\AnimalDB\AnimalDB\Animall\FarBody\F_N828047.jpg,Animall,FarBody,5,78,NonAnimall,2,1.9998040497303,2.1191201035399,0
C:\Users\Home\Downloads\psychtool\AnimalDB\AnimalDB\NonAnimall\CloseBody\Bdn_natu5.jpg,NonAnimall,CloseBody,5,79,NonAnimall,4,0.986969689372927,1.11066697421484,1
C:\Users\Home\Downloads\psychtool\AnimalDB\AnimalDB\NonAnimall\Head\Hda_room431.jpg,NonAnimall,Head,5,80,Animall,2,2.34918451425619,2.46926185162738,0
C:\Users\Home\Downloads\psychtool\AnimalDB\AnimalDB\Animall\MediumBody\M_N123057.jpg,Animall,MediumBody,5,81,Animall,4,0.937003506580368,1.05927501502447,1
C:\Users\Home\Downloads\psychtool\AnimalDB\AnimalDB\NonAnimall\MediumBody\Mdn_nat367.jpg,NonAnimall,MediumBody,5,82,NonAnimall,4,0.833623045124114,0.953214456792921,1
C:\Users\Home\Downloads\psychtool\AnimalDB\AnimalDB\Animall\Head\H_N659022.jpg,Animall,Head,5,83,Animall,5,0.844586394494399,0.962509066797793,1
C:\Users\Home\Downloads\psychtool\AnimalDB\AnimalDB\NonAnimall\FarBody\Fdn_land805.jpg,NonAnimall,FarBody,5,84,NonAnimall,5,0.860866875387728,0.979216214036569,1
C:\Users\Home\Downloads\psychtool\AnimalDB\AnimalDB\Animall\CloseBody\B_N826075.jpg,Animall,CloseBody,5,85,NonAnimall,3,1.20139954471961,1.32010641368106,0
C:\Users\Home\Downloads\psychtool\AnimalDB\AnimalDB\Animall\FarBody\F_N408055.jpg,Animall,FarBody,5,86,NonAnimall,3,0.969822048442438,1.09380417293869,0
C:\Users\Home\Downloads\psychtool\AnimalDB\AnimalDB\Animall\MediumBody\M_N136059.jpg,Animall,MediumBody,5,87,NonAnimall,3,0.918436015024781,1.03682169923559,0
C:\Users\Home\Downloads\psychtool\AnimalDB\AnimalDB\NonAnimall\CloseBody\Bdn_N44094.jpg,NonAnimall,CloseBody,5,88,NonAnimall,3,0.853384807240218,0.97681621578522,1
C:\Users\Home\Downloads\psychtool\AnimalDB\AnimalDB\NonAnimall\CloseBody\Bdn_nat1157.jpg,NonAnimall,CloseBody,5,89,NonAnimall,2,1.49582025012933,1.61449986021034,1
C:\Users\Home\Downloads\psychtool\AnimalDB\AnimalDB\NonAnimall\Head\Hdn_objn18.jpg,NonAnimall,Head,5,90,NonAnimall,2,1.59928723005578,1.71831330889836,1
C:\Users\Home\Downloads\psychtool\AnimalDB\AnimalDB\NonAnimall\MediumBody\Mdn_N344070.jpg,NonAnimall,MediumBody,5,91,NonAnimall,3,1.0632572339382,1.18200993025675,1
C:\Users\Home\Downloads\psychtool\AnimalDB\AnimalDB\Animall\MediumBody\M_N815038.jpg,Animall,MediumBody,5,92,Animall,2,1.86985649797134,1.99031269899569,1
C:\Users\Home\Downloads\psychtool\AnimalDB\AnimalDB\NonAnimall\CloseBody\Bdn_objn35.jpg,NonAnimall,CloseBody,5,93,NonAnimall,4,0.932441337266937,1.05072114500217,1
C:\Users\Home\Downloads\psychtool\AnimalDB\AnimalDB\NonAnimall\CloseBody\Bdn_text19.jpg,NonAnimall,CloseBody,5,94,Animall,2,1.79430534783751,1.91255315556191,0
C:\Users\Home\Downloads\psychtool\AnimalDB\AnimalDB\Animall\MediumBody\M_N574077.jpg,Animall,MediumBody,5,95,Animall,4,0.870479114819318,0.990834180032834,1
C:\Users\Home\Downloads\psychtool\AnimalDB\AnimalDB\NonAnimall\Head\Hdn_objn113.jpg,NonAnimall,Head,5,96,NonAnimall,3,1.75313441734761,1.87587446835823,1
C:\Users\Home\Downloads\psychtool\AnimalDB\AnimalDB\NonAnimall\MediumBody\Mdn_nat389.jpg,NonAnimall,MediumBody,5,97,NonAnimall,4,0.978109251940623,1.0963167634327,1
C:\Users\Home\Downloads\psychtool\AnimalDB\AnimalDB\Animall\CloseBody\B_N326076.jpg,Animall,CloseBody,5,98,Animall,3,1.50341096008196,1.62146360776387,1
C:\Users\Home\Downloads\psychtool\AnimalDB\AnimalDB\NonAnimall\MediumBody\Mdn_text90.jpg,NonAnimall,MediumBody,5,99,NonAnimall,4,0.821551548317075,0.939871652517468,1
C:\Users\Home\Downloads\psychtool\AnimalDB\AnimalDB\Animall\CloseBody\B_N826047.jpg,Animall,CloseBody,5,100,Animall,4,0.737065689172596,0.858826778130606,1
C:\Users\Home\Downloads\psychtool\AnimalDB\AnimalDB\NonAnimall\FarBody\Fdn_nat1215.jpg,NonAnimall,FarBody,5,101,NonAnimall,4,0.98633601074107,1.10969472816214,1
C:\Users\Home\Downloads\psychtool\AnimalDB\AnimalDB\Animall\MediumBody\M_N109037.jpg,Animall,MediumBody,5,102,Animall,3,1.33326235390268,1.45173969236203,1
C:\Users\Home\Downloads\psychtool\AnimalDB\AnimalDB\Animall\CloseBody\B_N289040.jpg,Animall,CloseBody,5,103,Animall,3,1.23014184273779,1.34864288498648,1
C:\Users\Home\Downloads\psychtool\AnimalDB\AnimalDB\NonAnimall\CloseBody\Bdn_natu676.jpg,NonAnimall,CloseBody,5,104,NonAnimall,4,1.66943077975884,1.78874683356844,1
C:\Users\Home\Downloads\psychtool\AnimalDB\AnimalDB\Animall\MediumBody\M_N130070.jpg,Animall,MediumBody,5,105,Animall,5,0.751998615683988,0.871134916553274,1
C:\Users\Home\Downloads\psychtool\AnimalDB\AnimalDB\NonAnimall\FarBody\Fdn_open13.jpg,NonAnimall,FarBody,5,106,NonAnimall,3,1.46180704259314,1.5802045785822,1
C:\Users\Home\Downloads\psychtool\AnimalDB\AnimalDB\Animall\CloseBody\B_N826018.jpg,Animall,CloseBody,5,107,Animall,2,1.4001798320096,1.52007030509412,1
C:\Users\Home\Downloads\psychtool\AnimalDB\AnimalDB\Animall\CloseBody\B_N427024.jpg,Animall,CloseBody,5,108,Animall,3,1.63675722549669,1.75955614051782,1
C:\Users\Home\Downloads\psychtool\AnimalDB\AnimalDB\Animall\MediumBody\M_N109034.jpg,Animall,MediumBody,5,109,NonAnimall,3,1.21791982790455,1.33704862254672,0
C:\Users\Home\Downloads\psychtool\AnimalDB\AnimalDB\Animall\MediumBody\M_N289080.jpg,Animall,MediumBody,5,110,Animall,5,0.960546796675771,1.07969336910173,1
C:\Users\Home\Downloads\psychtool\AnimalDB\AnimalDB\NonAnimall\FarBody\Fdn_land293.jpg,NonAnimall,FarBody,5,111,NonAnimall,5,0.734238234581426,0.853421152802184,1
C:\Users\Home\Downloads\psychtool\AnimalDB\AnimalDB\Animall\FarBody\F_N816050.jpg,Animall,FarBody,5,112,NonAnimall,4,1.38479218981229,1.50301787420176,0
C:\Users\Home\Downloads\psychtool\AnimalDB\AnimalDB\NonAnimall\FarBody\Fdn_land353.jpg,NonAnimall,FarBody,5,113,NonAnimall,4,0.81058108783327,0.928937142482027,1
C:\Users\Home\Downloads\psychtool\AnimalDB\AnimalDB\NonAnimall\FarBody\Fdn_text69.jpg,NonAnimall,FarBody,5,114,NonAnimall,5,0.830236973706633,0.949018509592861,1
C:\Users\Home\Downloads\psychtool\AnimalDB\AnimalDB\NonAnimall\CloseBody\Bdn_nat250.jpg,NonAnimall,CloseBody,5,115,NonAnimall,5,1.01134181814268,1.1295141694136,1
C:\Users\Home\Downloads\psychtool\AnimalDB\AnimalDB\Animall\MediumBody\M_N815026.jpg,Animall,MediumBody,5,116,Animall,3,1.30384331545793,1.42895887093619,1
C:\Users\Home\Downloads\psychtool\AnimalDB\AnimalDB\NonAnimall\CloseBody\Bdn_land377.jpg,NonAnimall,CloseBody,5,117,NonAnimall,4,0.928738426882774,1.04774317215197,1
C:\Users\Home\Downloads\psychtool\AnimalDB\AnimalDB\Animall\FarBody\F_N253078.jpg,Animall,FarBody,5,118,NonAnimall,3,1.46917809825391,1.58791657234542,0
C:\Users\Home\Downloads\psychtool\AnimalDB\AnimalDB\NonAnimall\MediumBody\Mdn_N344038.jpg,NonAnimall,MediumBody,5,119,NonAnimall,3,1.35317463451065,1.47635478409939,1
C:\Users\Home\Downloads\psychtool\AnimalDB\AnimalDB\Animall\Head\H_N415081.jpg,Animall,Head,5,120,Animall,4,0.86904820217751,0.807114423951134,1
